"rt","key_press","correct","choices","correct_choice","trial_duration","response_ends_trial","number_of_apertures","number_of_dots","number_of_sets","coherent_direction","coherence","opposite_coherence","dot_radius","dot_life","move_distance","aperture_width","aperture_height","dot_color","background_color","RDK_type","aperture_type","reinsert_type","frame_rate","frame_rate_array","number_of_frames","aperture_center_x","aperture_center_y","fixation_cross","fixation_cross_width","fixation_cross_height","fixation_cross_color","fixation_cross_thickness","border","border_thickness","border_color","canvas_width","canvas_height","trial_type","trial_index","time_elapsed","internal_node_id","sona_ID","random_ID","initials","age","gender","resp_confidence","rt_confidence","sat_CB","pc_info","condition","direction","coherence_level","event","trial","block","phase","screen_resolution","window_resolution","focus","rt_confirm"
"613.3449999979348","69","true","e,t","e","5000","true","1","50","1","180","0.5","0","2","5","1.9692307692307693","231.2","231.2","white","black","5","1","1","17.194285714400134","[17.545000002428424,31.139999999140855,19.270000004325993,16.514999995706603,17.610000002605375,16.28999999957159,16.969999996945262,16.315000000759028,16.649999997753184,17.080000005080365,16.714999997930136,16.21999999770196,16.560000003664754,16.869999999471474,16.45000000280561,16.694999998435378,16.364999995857943,16.6700000045239,16.550000000279397,16.664999995555263,16.630000005534384,16.414999998232815,16.555000001972076,16.949999997450504,16.799999997601844,16.90000000235159,16.705000001820736,16.52499999909196,16.75499999691965,17.06500000000233,16.43000000331085,17.05999999830965,16.30999999906635,16.840000003867317,16.714999997930136]","35","640","289","false","20","20","black","1","false","1","1","1280","578","rdk","6","27208","0.0-4.0-1.0-1.0","","ocqlra","KD","","","-1","-1","accuracy","{""name"":""Chrome"",""chrome"":true,""version"":""80.0"",""blink"":true,""windows"":true,""osname"":""Windows"",""osversion"":""10"",""a"":true}","","left","0.5","rdk","1","1","training_1","1280 x 720","1280 x 578","true",""
"562.5700000018696","84","true","e,t","t","5000","true","1","50","1","0","0.5","0","2","5","1.9692307692307693","231.2","231.2","white","black","5","1","1","16.771969696988393","[21.289999996952247,15.494999999646097,16.569999999774154,16.795000003185123,16.75999999861233,16.615000000456348,16.645000003336463,16.654999999445863,16.810000000987202,16.714999997930136,16.53000000078464,16.884999997273553,16.260000003967434,16.969999996945262,16.855000001669396,16.425000001618173,16.52499999909196,16.75499999691965,17.680000004475005,15.719999995781109,16.394999998738058,16.804999999294523,16.755000004195608,16.584999997576233,16.75999999861233,17.680000004475005,15.744999996968545,16.700000000128057,16.465000000607688,16.875000001164153,16.770000001997687,16.700000000128057,16.284999997878913]","33","640","289","false","20","20","black","1","false","1","1","1280","578","rdk","9","29779","0.0-4.0-1.0-1.1","","ocqlra","KD","","","-1","-1","accuracy","{""name"":""Chrome"",""chrome"":true,""version"":""80.0"",""blink"":true,""windows"":true,""osname"":""Windows"",""osversion"":""10"",""a"":true}","","right","0.5","rdk","2","1","training_1","1280 x 720","1280 x 578","true",""
"456.00500000000466","84","false","e,t","e","5000","true","1","50","1","180","0.5","0","2","5","1.9692307692307693","231.2","231.2","white","black","5","1","1","17.96440000005532","[32.61500000371598,36.20999999839114,15.209999997750856,15.445000004547182,17.774999992980156,15.32500000030268,16.485000000102445,16.999999999825377,16.565000005357433,16.36000000144122,16.76499999302905,16.795000003185123,16.799999997601844,16.43000000331085,16.75000000250293,16.739999999117572,17.50499999616295,16.784999999799766,16.60000000265427,16.729999995732214,15.570000003208406,16.555000001972076,16.584999997576233,16.869999999471474,16.640000001643784]","25","640","289","false","20","20","black","1","false","1","1","1280","578","rdk","12","32244","0.0-4.0-1.0-1.2","","ocqlra","KD","","","-1","-1","accuracy","{""name"":""Chrome"",""chrome"":true,""version"":""80.0"",""blink"":true,""windows"":true,""osname"":""Windows"",""osversion"":""10"",""a"":true}","","left","0.5","rdk","3","1","training_1","1280 x 720","1280 x 578","true",""
"453.27499999984866","69","true","e,t","e","5000","true","1","50","1","180","0.5","0","2","5","1.9692307692307693","231.2","231.2","white","black","5","1","1","16.64648148154676","[15.84500000171829,16.880000002856832,16.669999997247942,16.165000000910368,16.624999996565748,16.715000005206093,16.579999995883554,17.590000003110617,16.199999998207204,16.60000000265427,16.59500000096159,16.76499999302905,16.634999999951106,17.580000007001217,16.98499999474734,15.769999998155981,16.495000003487803,16.629999998258427,16.325000004144385,17.019999999320135,16.60999999876367,16.589999999268912,16.739999999117572,16.640000001643784,16.810000000987202,16.694999998435378,16.700000000128057]","27","640","289","false","20","20","black","1","false","1","1","1280","578","rdk","15","34707","0.0-4.0-1.0-1.3","","ocqlra","KD","","","-1","-1","accuracy","{""name"":""Chrome"",""chrome"":true,""version"":""80.0"",""blink"":true,""windows"":true,""osname"":""Windows"",""osversion"":""10"",""a"":true}","","left","0.5","rdk","4","1","training_1","1280 x 720","1280 x 578","true",""
"513.5599999994156","69","true","e,t","e","5000","true","1","50","1","180","0.5","0","2","5","1.9692307692307693","231.2","231.2","white","black","5","1","1","16.280645161215592","[3.5449999995762482,17.175000000861473,16.30499999737367,16.90499999676831,16.875000001164153,17.060000005585607,16.869999999471474,16.444999993836973,16.695000005711336,16.60499999707099,16.82499999878928,17.670000001089647,15.625,16.575000001466833,16.91500000015367,16.644999996060506,16.500000005180482,16.669999997247942,16.470000002300367,16.60499999707099,17.149999999674037,16.315000000759028,16.645000003336463,16.494999996211845,16.90500000404427,15.974999994796235,16.634999999951106,16.58500000485219,16.83000000048196,16.704999994544778,17.480000002251472]","31","640","289","false","20","20","black","1","false","1","1","1280","578","rdk","18","37229","0.0-4.0-1.0-1.4","","ocqlra","KD","","","-1","-1","accuracy","{""name"":""Chrome"",""chrome"":true,""version"":""80.0"",""blink"":true,""windows"":true,""osname"":""Windows"",""osversion"":""10"",""a"":true}","","left","0.5","rdk","5","1","training_1","1280 x 720","1280 x 578","true",""
"471.59999999712454","84","true","e,t","t","5000","true","1","50","1","0","0.5","0","2","5","1.9692307692307693","231.2","231.2","white","black","5","1","1","17.21740740753443","[31.374999998661224,16.910000005736947,16.45999999891501,16.44999999552965,16.98000000033062,16.419999999925494,16.73500000470085,16.654999999445863,16.664999995555263,16.795000003185123,16.43999999942025,16.6899999967427,17.48500000394415,15.625,17.155000001366716,16.46999999502441,16.710000003513414,16.734999997424893,16.67499999894062,16.634999999951106,16.51000000128988,16.860000003362074,16.68499999505002,16.645000003336463,16.710000003513414,17.80499999586027,15.590000002703164]","27","640","289","false","20","20","black","1","false","1","1","1280","578","rdk","21","39709","0.0-4.0-1.0-1.5","","ocqlra","KD","","","-1","-1","accuracy","{""name"":""Chrome"",""chrome"":true,""version"":""80.0"",""blink"":true,""windows"":true,""osname"":""Windows"",""osversion"":""10"",""a"":true}","","right","0.5","rdk","6","1","training_1","1280 x 720","1280 x 578","true",""
"722.6949999967474","84","true","e,t","t","5000","true","1","50","1","0","0.5","0","2","5","1.9692307692307693","231.2","231.2","white","black","5","1","1","16.71383720937694","[18.580000003566965,16.669999997247942,16.75000000250293,16.579999995883554,16.719999999622814,16.620000002149027,16.714999997930136,16.710000003513414,16.634999999951106,16.700000000128057,16.60499999707099,16.540000004169997,16.929999997955747,16.535000002477318,16.804999999294523,16.44999999552965,16.654999999445863,16.930000005231705,16.594999993685633,16.645000003336463,16.804999999294523,16.30499999737367,16.22000000497792,16.45499999722233,16.73500000470085,16.504999999597203,16.59999999537831,16.479999998409767,16.81500000267988,16.569999999774154,16.730000003008172,16.60999999876367,16.75999999861233,16.470000002300367,16.654999999445863,16.700000000128057,16.719999999622814,16.814999995403923,17.4200000037672,16.83000000048196,16.880000002856832,16.60999999876367,16.634999999951106]","43","640","289","false","20","20","black","1","false","1","1","1280","578","rdk","24","42440","0.0-4.0-1.0-1.6","","ocqlra","KD","","","-1","-1","accuracy","{""name"":""Chrome"",""chrome"":true,""version"":""80.0"",""blink"":true,""windows"":true,""osname"":""Windows"",""osversion"":""10"",""a"":true}","","right","0.5","rdk","7","1","training_1","1280 x 720","1280 x 578","true",""
"443.02500000048894","84","true","e,t","t","5000","true","1","50","1","0","0.5","0","2","5","1.9692307692307693","231.2","231.2","white","black","5","1","1","16.211851851915494","[3.3100000000558794,17.49500000005355,18.120000000635628,15.400000003864989,16.509999994013924,16.67499999894062,16.860000003362074,16.270000000076834,16.795000003185123,16.559999996388797,16.710000003513414,16.939999994065147,16.82000000437256,16.45999999891501,16.204999999899883,17.039999998814892,16.569999999774154,16.765000000305008,16.775000003690366,16.654999999445863,16.719999999622814,16.59500000096159,16.879999995580874,16.400000000430737,16.705000001820736,16.644999996060506,16.840000003867317]","27","640","289","false","20","20","black","1","false","1","1","1280","578","rdk","27","44892","0.0-4.0-1.0-1.7","","ocqlra","KD","","","-1","-1","accuracy","{""name"":""Chrome"",""chrome"":true,""version"":""80.0"",""blink"":true,""windows"":true,""osname"":""Windows"",""osversion"":""10"",""a"":true}","","right","0.5","rdk","8","1","training_1","1280 x 720","1280 x 578","true",""
"401.4249999963795","69","true","e,t","e","5000","true","1","50","1","180","0.5","0","2","5","1.9692307692307693","231.2","231.2","white","black","5","1","1","16.802608695718884","[19.795000000158325,16.634999999951106,16.559999996388797,16.535000002477318,16.620000002149027,16.814999995403923,16.67499999894062,16.58500000485219,16.949999997450504,16.51000000128988,16.629999998258427,16.660000001138542,16.75499999691965,16.82500000606524,16.550000000279397,16.709999996237457,16.82000000437256,16.53999999689404,16.504999999597203,16.819999997096602,16.710000003513414,16.60999999876367,16.645000003336463]","23","640","289","false","20","20","black","1","false","1","1","1280","578","rdk","30","47301","0.0-4.0-1.0-1.8","","ocqlra","KD","","","-1","-1","accuracy","{""name"":""Chrome"",""chrome"":true,""version"":""80.0"",""blink"":true,""windows"":true,""osname"":""Windows"",""osversion"":""10"",""a"":true}","","left","0.5","rdk","9","1","training_1","1280 x 720","1280 x 578","true",""
"494.074999995064","69","true","e,t","e","5000","true","1","50","1","180","0.5","0","2","5","1.9692307692307693","231.2","231.2","white","black","5","1","1","16.497068965440246","[11.740000001736917,16.564999998081475,16.73500000470085,16.53499999520136,16.82499999878928,16.504999999597203,16.790000001492444,16.52499999909196,16.730000003008172,16.794999995909166,16.640000001643784,16.51000000128988,16.734999997424893,16.760000005888287,16.53499999520136,16.690000004018657,16.765000000305008,16.729999995732214,16.690000004018657,16.45999999891501,16.584999997576233,16.91500000015367,16.499999997904524,16.845000005559996,16.700000000128057,16.504999999597203,16.734999997424893,16.59500000096159,16.774999996414408]","29","640","289","false","20","20","black","1","false","1","1","1280","578","rdk","33","49802","0.0-4.0-1.0-1.9","","ocqlra","KD","","","-1","-1","accuracy","{""name"":""Chrome"",""chrome"":true,""version"":""80.0"",""blink"":true,""windows"":true,""osname"":""Windows"",""osversion"":""10"",""a"":true}","","left","0.5","rdk","10","1","training_1","1280 x 720","1280 x 578","true",""
"397.42000000114786","84","true","e,t","t","5000","true","1","50","1","0","0.5","0","2","5","1.9692307692307693","231.2","231.2","white","black","5","1","1","16.358124999896972","[8.519999995769467,20.58499999839114,13.525000002118759,16.654999999445863,16.67499999894062,16.660000001138542,16.240000004472677,16.714999997930136,16.60000000265427,16.734999997424893,16.83999999659136,16.775000003690366,16.694999998435378,16.690000004018657,16.704999994544778,16.640000001643784,16.714999997930136,16.660000001138542,16.75000000250293,16.45999999891501,16.790000001492444,16.6899999967427,16.755000004195608,16.51999999739928]","24","640","289","false","20","20","black","1","false","1","1","1280","578","rdk","36","52208","0.0-4.0-1.0-1.10","","ocqlra","KD","","","-1","-1","accuracy","{""name"":""Chrome"",""chrome"":true,""version"":""80.0"",""blink"":true,""windows"":true,""osname"":""Windows"",""osversion"":""10"",""a"":true}","","right","0.5","rdk","11","1","training_1","1280 x 720","1280 x 578","true",""
"530.3199999980279","84","true","e,t","t","5000","true","1","50","1","0","0.5","0","2","5","1.9692307692307693","231.2","231.2","white","black","5","1","1","16.78064516125878","[20.020000003569294,16.67999999335734,16.675000006216578,16.869999999471474,16.409999996540137,16.694999998435378,16.775000003690366,16.770000001997687,16.659999993862584,16.580000003159512,16.709999996237457,16.790000001492444,16.45999999891501,16.755000004195608,16.75499999691965,16.615000000456348,16.714999997930136,16.465000000607688,16.755000004195608,16.664999995555263,16.340000001946464,16.800000004877802,16.954999999143183,16.664999995555263,16.495000003487803,16.799999997601844,16.685000002325978,16.739999999117572,16.669999997247942,16.575000001466833,16.654999999445863]","31","640","289","false","20","20","black","1","false","1","1","1280","578","rdk","39","54746","0.0-4.0-1.0-1.11","","ocqlra","KD","","","-1","-1","accuracy","{""name"":""Chrome"",""chrome"":true,""version"":""80.0"",""blink"":true,""windows"":true,""osname"":""Windows"",""osversion"":""10"",""a"":true}","","right","0.5","rdk","12","1","training_1","1280 x 720","1280 x 578","true",""
"527.2649999969872","84","true","e,t","t","5000","true","1","50","1","0","0.2","0","2","5","1.9692307692307693","231.2","231.2","white","black","5","1","1","16.73177419363656","[18.25500000268221,16.67499999894062,16.835000002174638,16.704999994544778,16.675000006216578,16.814999995403923,16.345000003639143,17.034999997122213,16.305000004649628,16.90999999846099,16.714999997930136,16.730000003008172,16.499999997904524,16.869999999471474,16.264999998384155,18.11499999894295,15.340000005380716,17.14499999798136,16.320000002451707,16.709999996237457,16.495000003487803,16.544999998586718,16.98999999644002,17.4299999998766,16.029999998863786,16.29500000126427,16.739999999117572,16.945000003033783,16.569999999774154,16.555000001972076,16.82499999878928]","31","640","289","false","20","20","black","1","false","1","1","1280","578","rdk","45","62112","0.0-6.0-1.0-1.0","","ocqlra","KD","","","-1","-1","accuracy","{""name"":""Chrome"",""chrome"":true,""version"":""80.0"",""blink"":true,""windows"":true,""osname"":""Windows"",""osversion"":""10"",""a"":true}","","right","0.2","rdk","1","1","training_2","1280 x 720","1280 x 578","true",""
"515.785000003234","69","true","e,t","e","5000","true","1","50","1","180","0.2","0","2","5","1.9692307692307693","231.2","231.2","white","black","5","1","1","17.203103448113765","[32.31999999843538,16.694999998435378,16.634999999951106,16.790000001492444,16.709999996237457,16.634999999951106,16.455000004498288,16.889999998966232,16.685000002325978,15.914999996311963,17.19500000035623,16.30999999906635,16.790000001492444,16.75499999691965,16.840000003867317,17.099999997299165,15.005000001110602,17.50999999785563,17.019999999320135,16.770000001997687,16.535000002477318,16.725000001315493,16.649999997753184,16.685000002325978,16.694999998435378,16.43999999942025,16.60499999707099,17.110000000684522,16.419999999925494]","29","640","289","false","20","20","black","1","false","1","1","1280","578","rdk","48","64636","0.0-6.0-1.0-1.1","","ocqlra","KD","","","-1","-1","accuracy","{""name"":""Chrome"",""chrome"":true,""version"":""80.0"",""blink"":true,""windows"":true,""osname"":""Windows"",""osversion"":""10"",""a"":true}","","left","0.2","rdk","2","1","training_2","1280 x 720","1280 x 578","true",""
"557.6549999968847","84","true","e,t","t","5000","true","1","50","1","0","0.2","0","2","5","1.9692307692307693","231.2","231.2","white","black","5","1","1","16.408030303092815","[8.075000005192123,16.784999999799766,16.60499999707099,16.75499999691965,16.770000001997687,16.51500000298256,16.61999999487307,17.79000000533415,15.824999994947575,18.750000002910383,14.615000000048894,16.275000001769513,16.924999996263068,16.340000001946464,17.480000002251472,16.324999996868428,16.14500000141561,16.960000000835862,16.739999999117572,16.385000002628658,16.869999999471474,16.409999996540137,16.66500000283122,18.059999994875398,16.89000000624219,15.464999996765982,17.905000000610016,16.024999997171108,15.570000003208406,16.67499999894062,16.340000001946464,17.159999995783437,16.75000000250293]","33","640","289","false","20","20","black","1","false","1","1","1280","578","rdk","51","67203","0.0-6.0-1.0-1.2","","ocqlra","KD","","","-1","-1","accuracy","{""name"":""Chrome"",""chrome"":true,""version"":""80.0"",""blink"":true,""windows"":true,""osname"":""Windows"",""osversion"":""10"",""a"":true}","","right","0.2","rdk","3","1","training_2","1280 x 720","1280 x 578","true",""
"506.7249999992782","69","true","e,t","e","5000","true","1","50","1","180","0.2","0","2","5","1.9692307692307693","231.2","231.2","white","black","5","1","1","16.405500000109896","[8.659999999508727,17.005000001518056,16.479999998409767,16.804999999294523,16.465000000607688,16.755000004195608,16.644999996060506,16.685000002325978,16.649999997753184,16.52499999909196,16.67499999894062,16.784999999799766,16.58500000485219,16.700000000128057,16.6899999967427,16.719999999622814,16.75000000250293,16.734999997424893,16.23000000108732,16.714999997930136,16.810000000987202,16.755000004195608,16.61999999487307,16.74000000639353,17.529999997350387,15.935000003082678,16.629999998258427,16.719999999622814,16.620000002149027,16.544999998586718]","30","640","289","false","20","20","black","1","false","1","1","1280","578","rdk","54","69717","0.0-6.0-1.0-1.3","","ocqlra","KD","","","-1","-1","accuracy","{""name"":""Chrome"",""chrome"":true,""version"":""80.0"",""blink"":true,""windows"":true,""osname"":""Windows"",""osversion"":""10"",""a"":true}","","left","0.2","rdk","4","1","training_2","1280 x 720","1280 x 578","true",""
"601.0049999968032","84","false","e,t","e","5000","true","1","50","1","180","0.2","0","2","5","1.9692307692307693","231.2","231.2","white","black","5","1","1","16.452916666619583","[8.675000004586764,16.924999996263068,16.700000000128057,16.640000001643784,16.779999998107087,16.569999999774154,16.719999999622814,16.620000002149027,16.644999996060506,16.6700000045239,16.6800000006333,16.660000001138542,16.68499999505002,16.470000002300367,16.844999998284038,16.6800000006333,16.67499999894062,16.634999999951106,16.739999999117572,16.630000005534384,16.669999997247942,16.66500000283122,16.664999995555263,16.605000004346948,16.789999994216487,16.60000000265427,16.564999998081475,16.730000003008172,16.634999999951106,16.60000000265427,16.644999996060506,16.74500000081025,16.810000000987202,16.559999996388797,16.910000005736947,16.46499999333173]","36","640","289","false","20","20","black","1","false","1","1","1280","578","rdk","57","72328","0.0-6.0-1.0-1.4","","ocqlra","KD","","","-1","-1","accuracy","{""name"":""Chrome"",""chrome"":true,""version"":""80.0"",""blink"":true,""windows"":true,""osname"":""Windows"",""osversion"":""10"",""a"":true}","","left","0.2","rdk","5","1","training_2","1280 x 720","1280 x 578","true",""
"1041.5350000039325","69","true","e,t","e","5000","true","1","50","1","180","0.2","0","2","5","1.9692307692307693","231.2","231.2","white","black","5","1","1","16.737741935479967","[21.014999998442363,16.544999998586718,16.835000002174638,16.75000000250293,16.559999996388797,16.719999999622814,16.540000004169997,16.804999999294523,16.729999995732214,16.504999999597203,16.650000005029142,16.719999999622814,16.779999998107087,16.51999999739928,16.690000004018657,16.23499999550404,16.845000005559996,18.04499999707332,15.764999996463303,16.475000003993046,16.779999998107087,16.700000000128057,16.540000004169997,16.75999999861233,16.649999997753184,16.67499999894062,16.60999999876367,16.730000003008172,16.569999999774154,16.60000000265427,16.739999999117572,16.83999999659136,16.490000001795124,16.615000000456348,16.700000000128057,16.74500000081025,17.88999999553198,15.370000000984874,16.74500000081025,16.52499999909196,16.780000005383044,16.644999996060506,16.569999999774154,16.6800000006333,16.83999999659136,16.570000007050112,16.744999993534293,16.535000002477318,16.625000003841706,16.864999997778796,16.714999997930136,16.479999998409767,17.525000002933666,16.109999996842816,16.390000004321337,16.59500000096159,16.864999997778796,16.414999998232815,16.82000000437256,16.749999995226972,16.66500000283122,16.550000000279397]","62","640","289","false","20","20","black","1","false","1","1","1280","578","rdk","60","74441","0.0-6.0-1.0-1.5","","ocqlra","KD","","","-1","-1","accuracy","{""name"":""Chrome"",""chrome"":true,""version"":""80.0"",""blink"":true,""windows"":true,""osname"":""Windows"",""osversion"":""10"",""a"":true}","","left","0.2","rdk","6","1","training_2","1280 x 720","1280 x 578","true",""
"618.9149999991059","84","true","e,t","t","5000","true","1","50","1","0","0.2","0","2","5","1.9692307692307693","231.2","231.2","white","black","5","1","1","16.75624999997025","[19.82999999745516,16.569999999774154,16.66500000283122,16.554999994696118,16.625000003841706,16.844999998284038,16.67499999894062,16.690000004018657,16.564999998081475,16.844999998284038,16.615000000456348,16.645000003336463,16.694999998435378,16.640000001643784,16.6800000006333,16.714999997930136,16.75000000250293,16.569999999774154,16.594999993685633,16.500000005180482,16.819999997096602,16.75999999861233,16.625000003841706,16.700000000128057,16.714999997930136,16.725000001315493,16.414999998232815,16.730000003008172,16.640000001643784,16.819999997096602,16.75000000250293,16.485000000102445,16.704999994544778,16.58500000485219,16.694999998435378,16.784999999799766]","36","640","289","false","20","20","black","1","false","1","1","1280","578","rdk","63","77069","0.0-6.0-1.0-1.6","","ocqlra","KD","","","-1","-1","accuracy","{""name"":""Chrome"",""chrome"":true,""version"":""80.0"",""blink"":true,""windows"":true,""osname"":""Windows"",""osversion"":""10"",""a"":true}","","right","0.2","rdk","7","1","training_2","1280 x 720","1280 x 578","true",""
"535.5899999995017","84","true","e,t","t","5000","true","1","50","1","0","0.2","0","2","5","1.9692307692307693","231.2","231.2","white","black","5","1","1","16.43703125000684","[8.755000002565794,17.234999999345746,16.270000000076834,16.669999997247942,16.610000006039627,16.894999993382953,16.400000000430737,16.990000003715977,16.714999997930136,16.45000000280561,16.869999999471474,16.669999997247942,16.45000000280561,16.664999995555263,16.990000003715977,16.479999998409767,16.589999999268912,16.605000004346948,16.949999997450504,16.45999999891501,16.43999999942025,16.580000003159512,16.884999997273553,16.82000000437256,16.929999997955747,16.235000002779998,17.14499999798136,16.620000002149027,16.324999996868428,16.734999997424893,16.52499999909196,17.025000001012813]","32","640","289","false","20","20","black","1","false","1","1","1280","578","rdk","66","79613","0.0-6.0-1.0-1.7","","ocqlra","KD","","","-1","-1","accuracy","{""name"":""Chrome"",""chrome"":true,""version"":""80.0"",""blink"":true,""windows"":true,""osname"":""Windows"",""osversion"":""10"",""a"":true}","","right","0.2","rdk","8","1","training_2","1280 x 720","1280 x 578","true",""
"507.9600000026403","69","true","e,t","e","5000","true","1","50","1","180","0.2","0","2","5","1.9692307692307693","231.2","231.2","white","black","5","1","1","16.62999999995615","[15.780000001541339,16.779999998107087,16.499999997904524,16.725000001315493,16.784999999799766,17.599999999220017,15.820000000530854,16.649999997753184,18.1700000030105,15.265000001818407,16.465000000607688,16.709999996237457,16.52499999909196,16.845000005559996,16.559999996388797,16.725000001315493,16.709999996237457,16.400000000430737,17.12000000406988,16.584999997576233,15.890000002400484,16.749999995226972,17.13500000187196,16.504999999597203,16.719999999622814,16.694999998435378,16.710000003513414,16.649999997753184,16.795000003185123,16.329999998561107]","30","640","289","false","20","20","black","1","false","1","1","1280","578","rdk","69","82128","0.0-6.0-1.0-1.8","","ocqlra","KD","","","-1","-1","accuracy","{""name"":""Chrome"",""chrome"":true,""version"":""80.0"",""blink"":true,""windows"":true,""osname"":""Windows"",""osversion"":""10"",""a"":true}","","left","0.2","rdk","9","1","training_2","1280 x 720","1280 x 578","true",""
"816.3649999987683","69","true","e,t","e","5000","true","1","50","1","180","0.2","0","2","5","1.9692307692307693","231.2","231.2","white","black","5","1","1","16.604387755084034","[15.040000005683396,16.75499999691965,16.38999999704538,17.04000000609085,16.594999993685633,17.685000006167684,17.229999997653067,15.045000000100117,16.44999999552965,16.760000005888287,16.584999997576233,17.56500000192318,15.899999998509884,16.474999996717088,16.695000005711336,16.61999999487307,16.654999999445863,16.760000005888287,16.624999996565748,17.80999999755295,15.905000000202563,16.255000002274755,18.040000002656598,15.979999996488914,17.599999999220017,16.040000002249144,15.715000001364388,16.559999996388797,16.615000000456348,16.765000000305008,16.620000002149027,17.57499999803258,15.950000000884756,16.479999998409767,16.6800000006333,16.649999997753184,16.695000005711336,16.67499999894062,16.899999995075632,16.330000005837064,16.804999999294523,16.615000000456348,16.61999999487307,17.250000004423782,16.465000000607688,16.36000000144122,16.729999995732214,16.654999999445863,15.40499999828171]","49","640","289","false","20","20","black","1","false","1","1","1280","578","rdk","72","84954","0.0-6.0-1.0-1.9","","ocqlra","KD","","","-1","-1","accuracy","{""name"":""Chrome"",""chrome"":true,""version"":""80.0"",""blink"":true,""windows"":true,""osname"":""Windows"",""osversion"":""10"",""a"":true}","","left","0.2","rdk","10","1","training_2","1280 x 720","1280 x 578","true",""
"707.8850000034436","84","true","e,t","t","5000","true","1","50","1","0","0.2","0","2","5","1.9692307692307693","231.2","231.2","white","black","5","1","1","16.456547619045956","[7.485000001906883,16.91500000015367,16.960000000835862,16.339999994670507,16.700000000128057,16.82499999878928,16.620000002149027,16.705000001820736,16.66500000283122,16.60999999876367,16.584999997576233,16.474999996717088,16.470000002300367,16.564999998081475,17.21499999985099,16.845000005559996,16.664999995555263,16.620000002149027,16.629999998258427,16.560000003664754,16.719999999622814,16.654999999445863,16.91500000015367,16.38999999704538,16.780000005383044,16.879999995580874,16.270000000076834,16.615000000456348,16.884999997273553,16.565000005357433,16.90999999846099,16.784999999799766,16.555000001972076,16.45499999722233,17.019999999320135,16.255000002274755,16.814999995403923,16.535000002477318,16.75999999861233,16.930000005231705,16.414999998232815,16.60999999876367]","42","640","289","false","20","20","black","1","false","1","1","1280","578","rdk","75","87670","0.0-6.0-1.0-1.10","","ocqlra","KD","","","-1","-1","accuracy","{""name"":""Chrome"",""chrome"":true,""version"":""80.0"",""blink"":true,""windows"":true,""osname"":""Windows"",""osversion"":""10"",""a"":true}","","right","0.2","rdk","11","1","training_2","1280 x 720","1280 x 578","true",""
"713.4599999990314","84","true","e,t","t","5000","true","1","50","1","0","0.2","0","2","5","1.9692307692307693","231.2","231.2","white","black","5","1","1","16.40383720934001","[4.0650000009918585,17.799999994167592,16.630000005534384,16.719999999622814,18.884999997681007,14.165000000502914,17.005000001518056,16.53999999689404,16.615000000456348,16.83000000048196,16.51500000298256,16.584999997576233,16.864999997778796,16.90500000404427,16.45499999722233,16.51999999739928,16.630000005534384,17.864999994344544,15.510000004724134,16.67499999894062,16.855000001669396,16.649999997753184,16.504999999597203,16.66500000283122,16.82499999878928,16.575000001466833,16.784999999799766,16.669999997247942,18.10000000114087,15.375000002677552,16.37999999366002,16.610000006039627,16.53499999520136,17.21499999985099,16.105000002426095,16.89500000065891,16.419999999925494,17.07499999611173,16.340000001946464,16.694999998435378,16.784999999799766,16.555000001972076,16.97000000422122]","43","640","289","false","20","20","black","1","false","1","1","1280","578","rdk","78","90395","0.0-6.0-1.0-1.11","","ocqlra","KD","","","-1","-1","accuracy","{""name"":""Chrome"",""chrome"":true,""version"":""80.0"",""blink"":true,""windows"":true,""osname"":""Windows"",""osversion"":""10"",""a"":true}","","right","0.2","rdk","12","1","training_2","1280 x 720","1280 x 578","true",""
"792.1799999967334","69","true","e,t","e","5000","true","1","50","1","180","0.2","0","2","5","1.9692307692307693","231.2","231.2","white","black","5","1","1","16.410937500040745","[5.610000000160653,15.829999996640254,16.465000000607688,16.91500000015367,16.504999999597203,16.845000005559996,16.569999999774154,16.774999996414408,16.425000001618173,16.90499999676831,16.52000000467524,15.86499999393709,16.780000005383044,16.59999999537831,16.6800000006333,16.960000000835862,16.53000000078464,16.9949999981327,16.185000000405125,16.800000004877802,16.479999998409767,16.83000000048196,16.999999999825377,16.29999999568099,16.58500000485219,16.664999995555263,16.83000000048196,16.58500000485219,16.765000000305008,17.094999995606486,16.270000000076834,16.419999999925494,16.860000003362074,16.729999995732214,16.59500000096159,16.125000001920853,17.20499999646563,16.45000000280561,16.6800000006333,16.725000001315493,16.489999994519167,16.845000005559996,17.749999999068677,15.984999998181593,16.920000001846347,16.179999998712447,16.714999997930136,16.88500000454951]","48","640","289","false","20","20","black","1","false","1","1","1280","578","rdk","84","98924","0.0-8.0-1.0-1.0","","ocqlra","KD","","","67","1390.31999999861","accuracy","{""name"":""Chrome"",""chrome"":true,""version"":""80.0"",""blink"":true,""windows"":true,""osname"":""Windows"",""osversion"":""10"",""a"":true}","","left","0.2","rdk","1","1","training_3","1280 x 720","1280 x 578","true","2543.7799999999697"
"562.2900000016671","69","true","e,t","e","5000","true","1","50","1","180","0.2","0","2","5","1.9692307692307693","231.2","231.2","white","black","5","1","1","16.40338235280497","[7.460000000719447,17.22499999596039,16.584999997576233,16.455000004498288,16.889999998966232,16.83999999659136,16.475000003993046,16.719999999622814,16.700000000128057,16.620000002149027,16.819999997096602,17.42499999818392,16.049999998358544,16.660000001138542,16.390000004321337,16.67499999894062,16.944999995757826,16.43000000331085,17.034999997122213,16.400000000430737,18.040000002656598,15.579999999317806,17.28000000002794,15.834999998332933,16.400000000430737,16.91500000015367,16.170000002603047,18.46500000101514,15.269999996235128,16.35000000533182,16.544999998586718,16.739999999117572,17.094999995606486,16.23000000108732]","34","640","289","false","20","20","black","1","false","1","1","1280","578","rdk","87","103541","0.0-8.0-1.0-1.1","","ocqlra","KD","","","81","1322.9900000005728","accuracy","{""name"":""Chrome"",""chrome"":true,""version"":""80.0"",""blink"":true,""windows"":true,""osname"":""Windows"",""osversion"":""10"",""a"":true}","","left","0.2","rdk","2","1","training_3","1280 x 720","1280 x 578","true","2186.2199999959557"
"829.3799999955809","84","true","e,t","t","5000","true","1","50","1","0","0.2","0","2","5","1.9692307692307693","231.2","231.2","white","black","5","1","1","16.969791666724632","[32.54500000184635,16.21999999770196,16.865000005054753,16.134999998030253,17.449999999371357,15.840000000025611,16.685000002325978,16.44500000111293,16.339999994670507,16.75000000250293,16.654999999445863,16.67499999894062,16.654999999445863,16.615000000456348,16.83000000048196,16.479999998409767,16.800000004877802,16.60499999707099,16.634999999951106,16.770000001997687,16.660000001138542,16.60999999876367,16.59500000096159,16.98499999474734,17.155000001366716,16.35000000533182,16.45999999891501,16.709999996237457,16.589999999268912,16.52000000467524,16.624999996565748,16.770000001997687,18.364999996265396,14.549999999871943,16.455000004498288,16.67499999894062,16.940000001341105,16.83499999489868,16.784999999799766,16.650000005029142,16.76999999472173,16.480000005685724,16.804999999294523,16.649999997753184,16.734999997424893,17.12500000576256,16.45999999891501,16.244999998889398]","48","640","289","false","20","20","black","1","false","1","1","1280","578","rdk","90","108068","0.0-8.0-1.0-1.2","","ocqlra","KD","","","80","1218.3349999977509","accuracy","{""name"":""Chrome"",""chrome"":true,""version"":""80.0"",""blink"":true,""windows"":true,""osname"":""Windows"",""osversion"":""10"",""a"":true}","","right","0.2","rdk","3","1","training_3","1280 x 720","1280 x 578","true","2076.999999997497"
"510.8699999982491","69","true","e,t","e","5000","true","1","50","1","180","0.2","0","2","5","1.9692307692307693","231.2","231.2","white","black","5","1","1","17.185517241285133","[31.71499999734806,16.660000001138542,16.624999996565748,16.75000000250293,16.569999999774154,16.644999996060506,16.6800000006333,16.654999999445863,16.719999999622814,16.700000000128057,16.705000001820736,16.620000002149027,17.710000000079162,15.520000000833534,16.60499999707099,16.52000000467524,16.6899999967427,16.43999999942025,16.790000001492444,17.005000001518056,16.664999995555263,16.755000004195608,16.644999996060506,16.810000000987202,16.60999999876367,16.625000003841706,16.615000000456348,16.765000000305008,16.564999998081475]","29","640","289","false","20","20","black","1","false","1","1","1280","578","rdk","93","112166","0.0-8.0-1.0-1.3","","ocqlra","KD","","","92","1300.360000001092","accuracy","{""name"":""Chrome"",""chrome"":true,""version"":""80.0"",""blink"":true,""windows"":true,""osname"":""Windows"",""osversion"":""10"",""a"":true}","","left","0.2","rdk","4","1","training_3","1280 x 720","1280 x 578","true","4188.460000004852"
"1110.789999998815","69","true","e,t","e","5000","true","1","50","1","180","0.2","0","2","5","1.9692307692307693","231.2","231.2","white","black","5","1","1","16.49350746273699","[4.415000003064051,17.690000000584405,16.514999995706603,16.869999999471474,16.940000001341105,16.315000000759028,16.739999999117572,17.03500000439817,16.23999999719672,16.9850000020233,16.38999999704538,16.499999997904524,16.634999999951106,16.6800000006333,16.75000000250293,16.624999996565748,16.720000006898772,20.939999994880054,12.115000004996546,17.28999999613734,16.244999998889398,17.72000000346452,15.804999995452818,16.545000005862676,16.749999995226972,16.485000000102445,16.75999999861233,16.690000004018657,16.629999998258427,16.669999997247942,16.6700000045239,16.779999998107087,16.615000000456348,16.799999997601844,16.615000000456348,16.710000003513414,16.465000000607688,16.700000000128057,16.714999997930136,16.725000001315493,16.694999998435378,16.51500000298256,16.864999997778796,16.629999998258427,16.569999999774154,16.660000001138542,16.734999997424893,16.940000001341105,16.36000000144122,16.580000003159512,16.734999997424893,16.779999998107087,16.425000001618173,16.880000002856832,16.52999999350868,16.775000003690366,16.969999996945262,16.385000002628658,16.6899999967427,16.52000000467524,16.550000000279397,16.344999996363185,16.240000004472677,17.079999997804407,16.580000003159512,16.734999997424893,16.810000000987202]","67","640","289","false","20","20","black","1","false","1","1","1280","578","rdk","96","118976","0.0-8.0-1.0-1.4","","ocqlra","KD","","","60","1251.7250000018976","accuracy","{""name"":""Chrome"",""chrome"":true,""version"":""80.0"",""blink"":true,""windows"":true,""osname"":""Windows"",""osversion"":""10"",""a"":true}","","left","0.2","rdk","5","1","training_3","1280 x 720","1280 x 578","true","2048.975000005157"
"771.9749999960186","69","true","e,t","e","5000","true","1","50","1","180","0.2","0","2","5","1.9692307692307693","231.2","231.2","white","black","5","1","1","16.679891304311635","[17.410000000381842,16.52000000467524,16.579999995883554,16.90999999846099,16.52499999909196,16.660000001138542,17.65000000159489,15.729999999166466,16.784999999799766,16.605000004346948,16.669999997247942,16.790000001492444,16.429999996034894,16.790000001492444,16.714999997930136,16.525000006367918,16.649999997753184,16.75499999691965,16.660000001138542,16.669999997247942,16.690000004018657,16.60000000265427,16.709999996237457,16.67499999894062,16.75999999861233,16.535000002477318,16.700000000128057,16.730000003008172,16.719999999622814,16.584999997576233,16.555000001972076,16.779999998107087,16.575000001466833,16.810000000987202,16.589999999268912,16.774999996414408,16.540000004169997,16.6899999967427,16.739999999117572,16.580000003159512,16.569999999774154,16.804999999294523,16.739999999117572,16.649999997753184,16.580000003159512,16.559999996388797]","46","640","289","false","20","20","black","1","false","1","1","1280","578","rdk","99","123308","0.0-8.0-1.0-1.5","","ocqlra","KD","","","72","1066.8299999961164","accuracy","{""name"":""Chrome"",""chrome"":true,""version"":""80.0"",""blink"":true,""windows"":true,""osname"":""Windows"",""osversion"":""10"",""a"":true}","","left","0.2","rdk","6","1","training_3","1280 x 720","1280 x 578","true","2057.0299999963026"
"473.8050000014482","84","true","e,t","t","5000","true","1","50","1","0","0.2","0","2","5","1.9692307692307693","231.2","231.2","white","black","5","1","1","16.533928571464326","[12.844999997469131,16.760000005888287,16.729999995732214,16.615000000456348,16.59500000096159,16.60000000265427,16.844999998284038,16.52499999909196,16.74500000081025,16.685000002325978,16.53499999520136,16.804999999294523,16.625000003841706,16.714999997930136,16.739999999117572,16.394999998738058,16.82000000437256,16.644999996060506,16.715000005206093,16.52499999909196,16.89500000065891,16.654999999445863,16.67499999894062,16.640000001643784,16.734999997424893,16.544999998586718,16.730000003008172,16.60999999876367]","28","640","289","false","20","20","black","1","false","1","1","1280","578","rdk","102","127348","0.0-8.0-1.0-1.6","","ocqlra","KD","","","60","1207.0450000028359","accuracy","{""name"":""Chrome"",""chrome"":true,""version"":""80.0"",""blink"":true,""windows"":true,""osname"":""Windows"",""osversion"":""10"",""a"":true}","","right","0.2","rdk","7","1","training_3","1280 x 720","1280 x 578","true","1983.059999998659"
"1999.6499999979278","84","true","e,t","t","5000","true","1","50","1","0","0.2","0","2","5","1.9692307692307693","231.2","231.2","white","black","5","1","1","16.632333333351806","[12.255000001459848,16.849999999976717,16.544999998586718,16.75499999691965,16.660000001138542,16.719999999622814,16.550000000279397,16.654999999445863,16.81500000267988,16.535000002477318,16.959999993559904,16.45000000280561,16.6899999967427,16.700000000128057,16.690000004018657,16.53000000078464,16.714999997930136,16.770000001997687,17.820000000938307,15.284999994037207,16.75000000250293,16.82000000437256,16.485000000102445,16.68499999505002,16.755000004195608,16.574999994190875,16.73500000470085,16.794999995909166,16.6800000006333,16.425000001618173,16.504999999597203,16.714999997930136,16.82500000606524,16.804999999294523,16.61999999487307,16.59500000096159,16.74500000081025,16.615000000456348,16.75999999861233,16.544999998586718,16.700000000128057,16.725000001315493,16.694999998435378,16.580000003159512,16.795000003185123,16.489999994519167,16.73500000470085,16.75499999691965,16.52499999909196,16.66500000283122,16.784999999799766,16.75999999861233,16.615000000456348,16.59500000096159,16.555000001972076,16.799999997601844,16.564999998081475,16.700000000128057,16.660000001138542,16.694999998435378,16.634999999951106,18.804999999701977,14.57500000105938,16.645000003336463,16.615000000456348,16.765000000305008,16.68499999505002,16.560000003664754,16.669999997247942,16.869999999471474,16.535000002477318,16.685000002325978,16.564999998081475,16.705000001820736,16.664999995555263,16.569999999774154,16.685000002325978,16.700000000128057,16.83000000048196,16.654999999445863,16.6899999967427,16.60999999876367,16.65500000672182,16.68499999505002,16.60999999876367,16.589999999268912,16.730000003008172,16.649999997753184,16.685000002325978,16.66500000283122,16.6800000006333,16.709999996237457,16.634999999951106,16.75000000250293,16.554999994696118,16.710000003513414,16.795000003185123,16.494999996211845,16.6800000006333,16.649999997753184,16.654999999445863,16.82000000437256,16.499999997904524,16.710000003513414,16.659999993862584,16.82000000437256,16.640000001643784,16.474999996717088,16.725000001315493,16.729999995732214,16.660000001138542,16.589999999268912,16.840000003867317,16.550000000279397,16.544999998586718,16.784999999799766,16.730000003008172,16.504999999597203,16.879999995580874,16.630000005534384]","120","640","289","false","20","20","black","1","false","1","1","1280","578","rdk","105","132841","0.0-8.0-1.0-1.7","","ocqlra","KD","","","44","1383.4449999994831","accuracy","{""name"":""Chrome"",""chrome"":true,""version"":""80.0"",""blink"":true,""windows"":true,""osname"":""Windows"",""osversion"":""10"",""a"":true}","","right","0.2","rdk","8","1","training_3","1280 x 720","1280 x 578","true","2221.03000000061"
"568.9449999990757","84","true","e,t","t","5000","true","1","50","1","0","0.2","0","2","5","1.9692307692307693","231.2","231.2","white","black","5","1","1","17.130151515161604","[31.655000006139744,16.51999999739928,16.700000000128057,16.719999999622814,16.575000001466833,16.774999996414408,16.82499999878928,16.580000003159512,16.774999996414408,16.52000000467524,16.67499999894062,16.66500000283122,16.879999995580874,16.580000003159512,16.564999998081475,16.645000003336463,16.729999995732214,16.560000003664754,16.74500000081025,16.52499999909196,16.789999994216487,16.630000005534384,16.60999999876367,16.765000000305008,16.6899999967427,16.60000000265427,16.714999997930136,16.555000001972076,16.784999999799766,16.810000000987202,16.719999999622814,16.53000000078464,16.879999995580874]","33","640","289","false","20","20","black","1","false","1","1","1280","578","rdk","108","137141","0.0-8.0-1.0-1.8","","ocqlra","KD","","","67","2553.5650000019814","accuracy","{""name"":""Chrome"",""chrome"":true,""version"":""80.0"",""blink"":true,""windows"":true,""osname"":""Windows"",""osversion"":""10"",""a"":true}","","right","0.2","rdk","9","1","training_3","1280 x 720","1280 x 578","true","3528.7699999971665"
"1466.3349999973434","84","false","e,t","e","5000","true","1","50","1","180","0.2","0","2","5","1.9692307692307693","231.2","231.2","white","black","5","1","1","16.563579545452907","[7.270000001881272,16.90499999676831,16.719999999622814,16.690000004018657,16.494999996211845,16.73500000470085,16.615000000456348,16.660000001138542,16.75999999861233,16.75999999861233,16.559999996388797,16.685000002325978,16.6800000006333,16.840000003867317,16.554999994696118,16.58500000485219,16.854999994393438,16.560000003664754,16.559999996388797,16.630000005534384,16.784999999799766,16.574999994190875,16.82500000606524,16.485000000102445,16.749999995226972,16.800000004877802,16.574999994190875,16.6700000045239,16.579999995883554,16.91500000015367,16.400000000430737,16.800000004877802,16.68499999505002,16.550000000279397,16.779999998107087,16.569999999774154,16.705000001820736,16.67499999894062,16.765000000305008,16.43999999942025,16.760000005888287,16.694999998435378,16.694999998435378,16.625000003841706,16.784999999799766,16.45999999891501,16.82499999878928,16.494999996211845,16.730000003008172,16.725000001315493,16.53499999520136,16.835000002174638,16.605000004346948,16.52999999350868,16.875000001164153,16.535000002477318,16.779999998107087,16.58500000485219,16.589999999268912,16.74500000081025,16.629999998258427,17.88500000111526,15.6349999961094,16.569999999774154,16.755000004195608,16.499999997904524,16.644999996060506,16.80500000657048,16.774999996414408,16.504999999597203,16.700000000128057,16.60999999876367,16.58500000485219,16.704999994544778,16.634999999951106,16.73500000470085,16.784999999799766,16.514999995706603,16.865000005054753,16.59999999537831,16.625000003841706,16.579999995883554,16.705000001820736,16.714999997930136,16.52499999909196,16.765000000305008,16.82500000606524,16.554999994696118]","88","640","289","false","20","20","black","1","false","1","1","1280","578","rdk","111","143646","0.0-8.0-1.0-1.9","","ocqlra","KD","","","14","2027.909999997064","accuracy","{""name"":""Chrome"",""chrome"":true,""version"":""80.0"",""blink"":true,""windows"":true,""osname"":""Windows"",""osversion"":""10"",""a"":true}","","left","0.2","rdk","10","1","training_3","1280 x 720","1280 x 578","true","3556.4200000007986"
"469.1450000027544","84","true","e,t","t","5000","true","1","50","1","0","0.2","0","2","5","1.9692307692307693","231.2","231.2","white","black","5","1","1","16.403392857163063","[9.01000000158092,16.840000003867317,16.714999997930136,16.669999997247942,16.560000003664754,16.774999996414408,16.640000001643784,16.75999999861233,16.475000003993046,16.814999995403923,16.82000000437256,16.52499999909196,16.654999999445863,16.634999999951106,16.634999999951106,16.844999998284038,16.555000001972076,16.3650000031339,16.694999998435378,17.039999998814892,16.474999996717088,16.60000000265427,16.779999998107087,16.75000000250293,16.620000002149027,16.76999999472173,16.650000005029142,16.61999999487307]","28","640","289","false","20","20","black","1","false","1","1","1280","578","rdk","114","149180","0.0-8.0-1.0-1.10","","ocqlra","KD","","","64","987.4300000010408","accuracy","{""name"":""Chrome"",""chrome"":true,""version"":""80.0"",""blink"":true,""windows"":true,""osname"":""Windows"",""osversion"":""10"",""a"":true}","","right","0.2","rdk","11","1","training_3","1280 x 720","1280 x 578","true","1865.6799999953364"
"1046.6299999970943","69","false","e,t","t","5000","true","1","50","1","0","0.2","0","2","5","1.9692307692307693","231.2","231.2","white","black","5","1","1","16.91409836062345","[31.510000000707805,16.709999996237457,16.760000005888287,16.68499999505002,16.714999997930136,16.685000002325978,16.730000003008172,16.624999996565748,16.53000000078464,16.499999997904524,16.9750000059139,16.649999997753184,16.544999998586718,16.490000001795124,17.06500000000233,16.654999999445863,16.589999999268912,16.799999997601844,16.6700000045239,16.51999999739928,16.90500000404427,16.874999993888196,16.28500000515487,16.875000001164153,16.30999999906635,17.05999999830965,16.550000000279397,16.640000001643784,16.419999999925494,16.97499999863794,16.60999999876367,16.569999999774154,16.730000003008172,16.654999999445863,16.714999997930136,16.714999997930136,17.375000003085006,15.885000000707805,16.654999999445863,16.765000000305008,16.634999999951106,18.25999999709893,15.380000004370231,16.104999995150138,16.784999999799766,16.540000004169997,16.814999995403923,16.6700000045239,16.569999999774154,16.644999996060506,16.91500000015367,16.43999999942025,16.475000003993046,16.91500000015367,16.694999998435378,16.725000001315493,16.725000001315493,16.51999999739928,16.734999997424893,16.45999999891501,16.770000001997687]","61","640","289","false","20","20","black","1","false","1","1","1280","578","rdk","117","153602","0.0-8.0-1.0-1.11","","ocqlra","KD","","","59","1845.5749999993714","accuracy","{""name"":""Chrome"",""chrome"":true,""version"":""80.0"",""blink"":true,""windows"":true,""osname"":""Windows"",""osversion"":""10"",""a"":true}","","right","0.2","rdk","12","1","training_3","1280 x 720","1280 x 578","true","2714.0849999996135"
"1114.914999998291","84","true","e,t","t","5000","true","1","50","1","0","0.2","0","2","5","1.9692307692307693","231.2","231.2","white","black","5","1","1","16.571716417831286","[10.644999994838145,16.625000003841706,16.704999994544778,16.80500000657048,16.45999999891501,16.899999995075632,16.605000004346948,17.744999997376,16.954999999143183,15.670000000682194,16.284999997878913,16.66500000283122,16.889999998966232,16.414999998232815,17.410000000381842,16.400000000430737,16.45999999891501,16.44000000669621,16.59999999537831,16.45000000280561,17.034999997122213,16.575000001466833,16.28000000346219,18.799999998009298,15.879999999015126,16.819999997096602,16.540000004169997,15.769999998155981,16.120000000228174,16.559999996388797,17.395000002579764,16.0600000017439,16.819999997096602,16.555000001972076,16.60499999707099,16.780000005383044,16.574999994190875,16.82000000437256,16.53000000078464,16.694999998435378,16.734999997424893,18.220000005385373,15.759999994770624,15.785000003234018,16.849999999976717,17.330000002402812,16.329999998561107,16.45499999722233,16.45000000280561,16.60999999876367,16.82499999878928,16.775000003690366,16.559999996388797,16.584999997576233,16.715000005206093,16.694999998435378,16.700000000128057,16.535000002477318,16.709999996237457,16.739999999117572,16.660000001138542,16.649999997753184,16.6700000045239,16.704999994544778,16.455000004498288,16.884999997273553,16.569999999774154]","67","640","289","false","20","20","black","1","false","1","1","1280","578","rdk","124","164342","0.0-10.0-2.0-1.0","","ocqlra","KD","","","80","1295.3950000010082","accuracy","{""name"":""Chrome"",""chrome"":true,""version"":""80.0"",""blink"":true,""windows"":true,""osname"":""Windows"",""osversion"":""10"",""a"":true}","accuracy","right","0.2","rdk","1","1","experimental","1280 x 720","1280 x 578","true","2286.9250000003376"
"762.5950000001467","69","true","e,t","e","5000","true","1","50","1","180","0.2","0","2","5","1.9692307692307693","231.2","231.2","white","black","5","1","1","16.673333333326607","[16.849999999976717,16.60000000265427,16.734999997424893,16.66500000283122,16.784999999799766,16.700000000128057,16.564999998081475,16.739999999117572,16.67499999894062,16.52499999909196,16.700000000128057,16.715000005206093,16.569999999774154,16.739999999117572,16.804999999294523,16.550000000279397,16.709999996237457,16.710000003513414,16.649999997753184,16.640000001643784,16.804999999294523,16.53999999689404,16.700000000128057,16.560000003664754,16.75499999691965,16.569999999774154,16.849999999976717,16.605000004346948,16.790000001492444,16.67499999894062,16.52499999909196,16.620000002149027,17.87999999942258,15.585000001010485,16.550000000279397,16.724999994039536,16.43999999942025,16.800000004877802,16.784999999799766,16.51000000128988,16.669999997247942,16.774999996414408,16.580000003159512,16.425000001618173,16.949999997450504]","45","640","289","false","20","20","black","1","false","1","1","1280","578","rdk","127","168900","0.0-10.0-2.0-1.1","","ocqlra","KD","","","89","1110.4699999996228","accuracy","{""name"":""Chrome"",""chrome"":true,""version"":""80.0"",""blink"":true,""windows"":true,""osname"":""Windows"",""osversion"":""10"",""a"":true}","accuracy","left","0.2","rdk","2","1","experimental","1280 x 720","1280 x 578","true","1989.4799999965471"
"612.0950000040466","69","true","e,t","e","5000","true","1","50","1","180","0.2","0","2","5","1.9692307692307693","231.2","231.2","white","black","5","1","1","16.389054053925555","[6.2899999975343235,16.51999999739928,16.634999999951106,16.795000003185123,16.6899999967427,16.710000003513414,16.739999999117572,16.91500000015367,16.700000000128057,16.315000000759028,16.729999995732214,16.66500000283122,16.474999996717088,17.03500000439817,17.605000000912696,15.974999994796235,16.22000000497792,16.61999999487307,16.66500000283122,16.98000000033062,16.615000000456348,16.494999996211845,17.030000002705492,16.14500000141561,16.794999995909166,16.690000004018657,16.770000001997687,16.43999999942025,16.810000000987202,16.67499999894062,16.749999995226972,16.940000001341105,16.504999999597203,16.329999998561107,16.90000000235159,16.645000003336463,16.579999995883554]","37","640","289","false","20","20","black","1","false","1","1","1280","578","rdk","130","173010","0.0-10.0-2.0-1.2","","ocqlra","KD","","","71","1513.5949999967124","accuracy","{""name"":""Chrome"",""chrome"":true,""version"":""80.0"",""blink"":true,""windows"":true,""osname"":""Windows"",""osversion"":""10"",""a"":true}","accuracy","left","0.2","rdk","3","1","experimental","1280 x 720","1280 x 578","true","2433.5050000008778"
"530.9900000065682","69","true","e,t","e","5000","true","1","50","1","180","0.2","0","2","5","1.9692307692307693","231.2","231.2","white","black","5","1","1","16.687741935452177","[17.15499999409076,16.555000001972076,16.434999997727573,17.005000001518056,16.770000001997687,16.44500000111293,16.98999999644002,16.540000004169997,16.639999994367827,16.74500000081025,16.719999999622814,16.690000004018657,16.575000001466833,16.794999995909166,16.490000001795124,16.819999997096602,16.495000003487803,16.819999997096602,16.660000001138542,16.605000004346948,16.659999993862584,16.6700000045239,16.615000000456348,16.6800000006333,16.51999999739928,16.74500000081025,16.835000002174638,16.639999994367827,16.775000003690366,17.549999996845145,15.680000004067551]","31","640","289","false","20","20","black","1","false","1","1","1280","578","rdk","133","177484","0.0-10.0-2.0-1.3","","ocqlra","KD","","","80","1207.2399999960908","accuracy","{""name"":""Chrome"",""chrome"":true,""version"":""80.0"",""blink"":true,""windows"":true,""osname"":""Windows"",""osversion"":""10"",""a"":true}","accuracy","left","0.2","rdk","4","1","experimental","1280 x 720","1280 x 578","true","2332.4499999944237"
"715.4700000028242","84","true","e,t","t","5000","true","1","50","1","0","0.2","0","2","5","1.9692307692307693","231.2","231.2","white","black","5","1","1","16.549186046515473","[11.364999998477288,16.870000006747432,16.75499999691965,16.394999998738058,16.739999999117572,16.59500000096159,16.629999998258427,16.760000005888287,16.67999999335734,16.634999999951106,16.66500000283122,16.660000001138542,16.564999998081475,16.685000002325978,16.45999999891501,17.034999997122213,16.495000003487803,16.75999999861233,16.605000004346948,16.844999998284038,16.499999997904524,16.795000003185123,16.53499999520136,17.449999999371357,16.470000002300367,16.07499999954598,16.90000000235159,16.629999998258427,16.645000003336463,16.514999995706603,16.755000004195608,16.594999993685633,16.6700000045239,16.629999998258427,16.869999999471474,16.690000004018657,16.554999994696118,16.770000001997687,16.51500000298256,16.779999998107087,16.535000002477318,16.869999999471474,16.664999995555263]","43","640","289","false","20","20","black","1","false","1","1","1280","578","rdk","136","182041","0.0-10.0-2.0-1.4","","ocqlra","KD","","","59","1586.3600000011502","accuracy","{""name"":""Chrome"",""chrome"":true,""version"":""80.0"",""blink"":true,""windows"":true,""osname"":""Windows"",""osversion"":""10"",""a"":true}","accuracy","right","0.2","rdk","5","1","experimental","1280 x 720","1280 x 578","true","2403.9900000061607"
"472.20999999990454","69","true","e,t","e","5000","true","1","50","1","180","0.2","0","2","5","1.9692307692307693","231.2","231.2","white","black","5","1","1","16.636249999854563","[15.559999999823049,16.579999995883554,16.485000000102445,17.070000001695007,16.284999997878913,16.97000000422122,16.479999998409767,16.810000000987202,16.790000001492444,16.52499999909196,16.784999999799766,16.51000000128988,16.814999995403923,16.83000000048196,16.419999999925494,16.640000001643784,16.869999999471474,16.74500000081025,16.669999997247942,16.634999999951106,16.525000006367918,16.629999998258427,16.98999999644002,16.22499999939464,16.700000000128057,16.695000005711336,16.784999999799766,16.789999994216487]","28","640","289","false","20","20","black","1","false","1","1","1280","578","rdk","139","186428","0.0-10.0-2.0-1.5","","ocqlra","KD","","","75","1353.979999999865","accuracy","{""name"":""Chrome"",""chrome"":true,""version"":""80.0"",""blink"":true,""windows"":true,""osname"":""Windows"",""osversion"":""10"",""a"":true}","accuracy","left","0.2","rdk","6","1","experimental","1280 x 720","1280 x 578","true","2125.724999998056"
"841.0500000027241","84","true","e,t","t","5000","true","1","50","1","0","0.2","0","2","5","1.9692307692307693","231.2","231.2","white","black","5","1","1","16.522300000069663","[9.430000005522743,16.869999999471474,16.494999996211845,16.705000001820736,16.59500000096159,16.89500000065891,16.649999997753184,16.589999999268912,16.74500000081025,16.6899999967427,16.75000000250293,16.560000003664754,19.284999994852114,14.365000002726447,16.44999999552965,16.400000000430737,16.540000004169997,16.91500000015367,16.729999995732214,16.43500000500353,16.944999995757826,16.560000003664754,16.91500000015367,16.719999999622814,16.575000001466833,16.46999999502441,16.690000004018657,16.774999996414408,16.934999999648426,16.28999999957159,16.660000001138542,17.095000002882443,16.30499999737367,16.75999999861233,16.81500000267988,16.3650000031339,16.884999997273553,16.620000002149027,17.449999999371357,15.944999999192078,17.859999999927823,15.585000001010485,17.65999999770429,15.610000002197921,15.999999995983671,16.925000003539026,16.634999999951106,17.88999999553198,15.930000001389999,16.15000000310829]","50","640","289","false","20","20","black","1","false","1","1","1280","578","rdk","142","190903","0.0-10.0-2.0-1.6","","ocqlra","KD","","","42","1858.699999997043","accuracy","{""name"":""Chrome"",""chrome"":true,""version"":""80.0"",""blink"":true,""windows"":true,""osname"":""Windows"",""osversion"":""10"",""a"":true}","accuracy","right","0.2","rdk","7","1","experimental","1280 x 720","1280 x 578","true","2748.744999997143"
"500.72000000363914","69","true","e,t","e","5000","true","1","50","1","180","0.2","0","2","5","1.9692307692307693","231.2","231.2","white","black","5","1","1","16.346499999781372","[7.599999997182749,17.13999999628868,16.38000000093598,17.859999999927823,15.77499999984866,17.149999999674037,16.945000003033783,16.00499999767635,17.65500000328757,16.734999997424893,15.39500000217231,17.704999998386484,15.144999997573905,17.51499999954831,15.940000004775357,16.954999999143183,17.149999999674037,16.270000000076834,16.75999999861233,16.82499999878928,16.784999999799766,16.330000005837064,16.46999999502441,15.875000004598405,16.749999995226972,16.60999999876367,17.100000004575122,16.779999998107087,16.284999997878913,16.504999999597203]","30","640","289","false","20","20","black","1","false","1","1","1280","578","rdk","145","195664","0.0-10.0-2.0-1.7","","ocqlra","KD","","","61","1128.790000002482","accuracy","{""name"":""Chrome"",""chrome"":true,""version"":""80.0"",""blink"":true,""windows"":true,""osname"":""Windows"",""osversion"":""10"",""a"":true}","accuracy","left","0.2","rdk","8","1","experimental","1280 x 720","1280 x 578","true","1987.6799999983632"
"1243.0850000018836","84","true","e,t","t","5000","true","1","50","1","0","0.2","0","2","5","1.9692307692307693","231.2","231.2","white","black","5","1","1","16.576148648636188","[10.114999997313134,16.645000003336463,16.589999999268912,16.770000001997687,16.700000000128057,16.91999999457039,16.784999999799766,16.525000006367918,16.45499999722233,16.629999998258427,16.634999999951106,18.25000000098953,15.39500000217231,16.394999998738058,16.504999999597203,16.940000001341105,16.719999999622814,16.584999997576233,16.89500000065891,16.30999999906635,16.73500000470085,16.97499999863794,16.494999996211845,16.550000000279397,16.700000000128057,16.869999999471474,16.354999999748543,16.59500000096159,17.010000003210735,16.564999998081475,16.629999998258427,16.615000000456348,16.74500000081025,16.51500000298256,16.579999995883554,17.015000004903413,16.734999997424893,16.400000000430737,18.04499999707332,17.12500000576256,14.8949999929755,16.240000004472677,16.739999999117572,16.660000001138542,16.864999997778796,17.850000003818423,15.379999997094274,16.584999997576233,16.51000000128988,16.770000001997687,16.74500000081025,16.719999999622814,16.589999999268912,16.535000002477318,17.684999998891726,15.789999997650739,16.60000000265427,16.68499999505002,16.784999999799766,16.490000001795124,16.804999999294523,16.790000001492444,16.45999999891501,16.6800000006333,16.810000000987202,16.685000002325978,16.509999994013924,16.65500000672182,16.814999995403923,16.629999998258427,16.580000003159512,16.739999999117572,16.569999999774154,16.765000000305008]","74","640","289","false","20","20","black","1","false","1","1","1280","578","rdk","148","200404","0.0-10.0-2.0-1.8","","ocqlra","KD","","","60","1070.0350000042818","accuracy","{""name"":""Chrome"",""chrome"":true,""version"":""80.0"",""blink"":true,""windows"":true,""osname"":""Windows"",""osversion"":""10"",""a"":true}","accuracy","right","0.2","rdk","9","1","experimental","1280 x 720","1280 x 578","true","1968.7050000065938"
"1520.1349999988452","84","true","e,t","t","5000","true","1","50","1","0","0.2","0","2","5","1.9692307692307693","231.2","231.2","white","black","5","1","1","16.53747252742875","[4.009999996924307,17.70500000566244,16.354999999748543,16.60999999876367,16.854999994393438,16.625000003841706,16.9949999981327,16.30999999906635,16.90000000235159,16.804999999294523,16.30999999906635,16.45999999891501,16.865000005054753,16.669999997247942,16.89500000065891,16.67499999894062,16.555000001972076,16.60499999707099,16.755000004195608,16.584999997576233,16.90999999846099,16.540000004169997,16.579999995883554,16.654999999445863,16.800000004877802,16.569999999774154,16.669999997247942,16.925000003539026,16.394999998738058,16.660000001138542,16.939999994065147,16.29500000126427,17.104999998991843,16.405000002123415,16.45000000280561,16.799999997601844,16.6800000006333,16.634999999951106,16.705000001820736,16.554999994696118,16.555000001972076,16.75000000250293,16.660000001138542,16.739999999117572,16.75499999691965,16.700000000128057,16.589999999268912,16.66500000283122,16.6899999967427,16.59500000096159,16.810000000987202,16.53000000078464,16.60499999707099,16.82500000606524,16.46999999502441,16.784999999799766,16.725000001315493,16.60499999707099,16.835000002174638,16.45000000280561,17.06500000000233,16.364999995857943,16.650000005029142,16.61999999487307,16.755000004195608,16.544999998586718,17.784999996365514,15.510000004724134,16.794999995909166,16.860000003362074,16.45499999722233,16.60999999876367,16.58500000485219,16.810000000987202,16.74500000081025,17.119999996793922,16.60499999707099,16.630000005534384,16.194999996514525,17.025000001012813,16.320000002451707,16.53499999520136,16.74500000081025,17.084999999497086,17.095000002882443,16.23499999550404,16.245000006165355,17.019999999320135,16.3749999992433,16.734999997424893,16.629999998258427]","91","640","289","false","20","20","black","1","false","1","1","1280","578","rdk","151","205403","0.0-10.0-2.0-1.9","","ocqlra","KD","","","61","1832.8849999961676","accuracy","{""name"":""Chrome"",""chrome"":true,""version"":""80.0"",""blink"":true,""windows"":true,""osname"":""Windows"",""osversion"":""10"",""a"":true}","accuracy","right","0.2","rdk","10","1","experimental","1280 x 720","1280 x 578","true","3013.859999999113"
"1648.8849999950617","84","true","e,t","t","5000","true","1","50","1","0","0.2","0","2","5","1.9692307692307693","231.2","231.2","white","black","5","1","1","16.609848484883763","[10.750000001280569,16.835000002174638,16.564999998081475,16.624999996565748,16.780000005383044,16.75499999691965,16.624999996565748,16.52000000467524,16.879999995580874,16.29500000126427,16.795000003185123,16.83999999659136,16.555000001972076,16.719999999622814,16.719999999622814,16.734999997424893,16.51500000298256,16.770000001997687,16.60999999876367,16.719999999622814,16.66500000283122,16.6899999967427,16.669999997247942,16.60000000265427,16.719999999622814,16.660000001138542,16.620000002149027,16.660000001138542,16.76499999302905,16.625000003841706,16.719999999622814,16.67499999894062,16.67499999894062,16.45999999891501,16.880000002856832,16.555000001972076,16.579999995883554,16.845000005559996,16.579999995883554,16.634999999951106,16.649999997753184,16.730000003008172,16.74500000081025,16.485000000102445,16.859999996086117,16.540000004169997,16.75000000250293,16.574999994190875,16.790000001492444,16.645000003336463,16.719999999622814,16.624999996565748,16.694999998435378,16.690000004018657,16.75000000250293,16.46999999502441,16.714999997930136,16.6700000045239,16.629999998258427,16.705000001820736,16.569999999774154,16.60499999707099,16.82499999878928,16.580000003159512,16.66500000283122,16.869999999471474,16.489999994519167,16.53000000078464,16.840000003867317,16.52499999909196,17.784999996365514,15.795000006619375,16.569999999774154,16.60999999876367,16.654999999445863,16.660000001138542,16.694999998435378,16.75000000250293,16.734999997424893,16.514999995706603,16.725000001315493,16.650000005029142,16.624999996565748,16.669999997247942,16.865000005054753,16.434999997727573,16.685000002325978,16.634999999951106,16.719999999622814,16.465000000607688,16.864999997778796,16.719999999622814,16.550000000279397,16.714999997930136,16.739999999117572,16.620000002149027,16.550000000279397,16.755000004195608,16.784999999799766]","99","640","289","false","20","20","black","1","false","1","1","1280","578","rdk","154","211576","0.0-10.0-2.0-1.10","","ocqlra","KD","","","61","1291.5299999949639","accuracy","{""name"":""Chrome"",""chrome"":true,""version"":""80.0"",""blink"":true,""windows"":true,""osname"":""Windows"",""osversion"":""10"",""a"":true}","accuracy","right","0.2","rdk","11","1","experimental","1280 x 720","1280 x 578","true","2999.0149999939604"
"850.3949999940232","69","true","e,t","e","5000","true","1","50","1","180","0.2","0","2","5","1.9692307692307693","231.2","231.2","white","black","5","1","1","16.724799999938114","[24.05499999440508,11.924999998882413,16.685000002325978,16.625000003841706,16.814999995403923,16.66500000283122,16.869999999471474,16.589999999268912,16.560000003664754,16.67499999894062,16.660000001138542,16.694999998435378,16.564999998081475,16.880000002856832,16.564999998081475,16.719999999622814,16.564999998081475,16.804999999294523,16.415000005508773,16.694999998435378,16.624999996565748,16.990000003715977,16.559999996388797,16.6700000045239,16.474999996717088,16.91500000015367,16.66500000283122,16.404999994847458,16.775000003690366,16.770000001997687,16.649999997753184,16.714999997930136,16.540000004169997,16.634999999951106,16.765000000305008,16.704999994544778,16.640000001643784,16.60000000265427,16.739999999117572,16.649999997753184,16.690000004018657,16.729999995732214,16.640000001643784,16.75499999691965,16.695000005711336,16.38999999704538,16.6899999967427,16.784999999799766,16.605000004346948,16.739999999117572]","50","640","289","false","20","20","black","1","false","1","1","1280","578","rdk","157","216935","0.0-10.0-2.0-1.11","","ocqlra","KD","","","92","1138.1399999954738","accuracy","{""name"":""Chrome"",""chrome"":true,""version"":""80.0"",""blink"":true,""windows"":true,""osname"":""Windows"",""osversion"":""10"",""a"":true}","accuracy","left","0.2","rdk","12","1","experimental","1280 x 720","1280 x 578","true","2120.2899999989313"
