"rt","key_press","correct","choices","correct_choice","trial_duration","response_ends_trial","number_of_apertures","number_of_dots","number_of_sets","coherent_direction","coherence","opposite_coherence","dot_radius","dot_life","move_distance","aperture_width","aperture_height","dot_color","background_color","RDK_type","aperture_type","reinsert_type","frame_rate","frame_rate_array","number_of_frames","aperture_center_x","aperture_center_y","fixation_cross","fixation_cross_width","fixation_cross_height","fixation_cross_color","fixation_cross_thickness","border","border_thickness","border_color","canvas_width","canvas_height","trial_type","trial_index","time_elapsed","internal_node_id","sona_ID","random_ID","initials","age","gender","resp_confidence","rt_confidence","sat_CB","pc_info","condition","direction","coherence_level","event","trial","block","phase","screen_resolution","window_resolution","focus","rt_confirm"
"350.6849999539554","69","true","e,t","e","5000","true","1","50","1","180","0.5","0","2","5","1.7","274.4","274.4","white","black","5","1","1","16.84599999571219","[20.53499990142882,16.49500010535121,16.934999963268638,16.395000042393804,16.594999935477972,16.740000108256936,16.52999990619719,16.64000004529953,16.82500005699694,16.644999850541353,16.580000054091215,16.8399999383837,16.490000067278743,16.68000011704862,16.64999988861382,16.594999935477972,16.605000011622906,16.810000175610185,16.824999824166298,16.509999986737967]","20","552.5","343","false","20","20","black","1","false","1","1","1105","686","rdk","6","11793","0.0-4.0-1.0-1.0","","mmlk0s","dsf","er","X","-1","-1","accuracy","{""name"":""Chrome"",""chrome"":true,""version"":""80.0"",""blink"":true,""windows"":true,""osname"":""Windows"",""osversion"":""10"",""a"":true}","","left","0.5","rdk","1","1","training_1","1536 x 864","1105 x 686","true",""
"186.4500001538545","69","false","e,t","t","5000","true","1","50","1","0","0.5","0","2","5","1.7","274.4","274.4","white","black","5","1","1","16.072272725233976","[10.109999915584922,16.80000009946525,16.654999926686287,16.61500008776784,16.59999997355044,16.44999999552965,16.71999995596707,16.97500003501773,16.28999994136393,16.71000011265278,16.869999933987856]","11","552.5","343","false","20","20","black","1","false","1","1","1105","686","rdk","9","12776","0.0-4.0-1.0-1.1","","mmlk0s","dsf","er","X","-1","-1","accuracy","{""name"":""Chrome"",""chrome"":true,""version"":""80.0"",""blink"":true,""windows"":true,""osname"":""Windows"",""osversion"":""10"",""a"":true}","","right","0.5","rdk","2","1","training_1","1536 x 864","1105 x 686","true",""
"170.23500008508563","69","true","e,t","e","5000","true","1","50","1","180","0.5","0","2","5","1.7","274.4","274.4","white","black","5","1","1","15.741999982856214","[7.454999955371022,16.850000014528632,16.57999982126057,16.56500017270446,16.42500003799796,16.759999794885516,16.65500015951693,17.005000030621886,16.59999997355044,16.524999868124723]","10","552.5","343","false","20","20","black","1","false","1","1","1105","686","rdk","12","13696","0.0-4.0-1.0-1.2","","mmlk0s","dsf","er","X","-1","-1","accuracy","{""name"":""Chrome"",""chrome"":true,""version"":""80.0"",""blink"":true,""windows"":true,""osname"":""Windows"",""osversion"":""10"",""a"":true}","","left","0.5","rdk","3","1","training_1","1536 x 864","1105 x 686","true",""
"191.49000011384487","69","true","e,t","e","5000","true","1","50","1","180","0.5","0","2","5","1.7","274.4","274.4","white","black","5","1","1","16.43909090621905","[14.070000033825636,16.850000014528632,16.500000143423676,16.739999875426292,16.64000004529953,16.44999999552965,16.83499990031123,16.71000011265278,16.605000011622906,16.64000004529953,16.789999790489674]","11","552.5","343","false","20","20","black","1","false","1","1","1105","686","rdk","15","14577","0.0-4.0-1.0-1.3","","mmlk0s","dsf","er","X","-1","-1","accuracy","{""name"":""Chrome"",""chrome"":true,""version"":""80.0"",""blink"":true,""windows"":true,""osname"":""Windows"",""osversion"":""10"",""a"":true}","","left","0.5","rdk","4","1","training_1","1536 x 864","1105 x 686","true",""
"198.80000012926757","69","true","e,t","e","5000","true","1","50","1","180","0.5","0","2","5","1.7","274.4","274.4","white","black","5","1","1","16.23874999737988","[11.734999949112535,16.34499989449978,16.900000162422657,23.954999865964055,9.25999996252358,17.430000007152557,15.870000002905726,17.11000013165176,16.594999935477972,16.42500003799796,16.47999999113381,16.76000002771616]","12","552.5","343","false","20","20","black","1","false","1","1","1105","686","rdk","18","15587","0.0-4.0-1.0-1.4","","mmlk0s","dsf","er","X","-1","-1","accuracy","{""name"":""Chrome"",""chrome"":true,""version"":""80.0"",""blink"":true,""windows"":true,""osname"":""Windows"",""osversion"":""10"",""a"":true}","","left","0.5","rdk","5","1","training_1","1536 x 864","1105 x 686","true",""
"186.77999987266958","69","false","e,t","t","5000","true","1","50","1","0","0.5","0","2","5","1.7","274.4","274.4","white","black","5","1","1","15.80772728828544","[7.455000188201666,16.754999989643693,16.874999972060323,17.159999813884497,15.71000018157065,16.8399999383837,16.474999953061342,17.070000059902668,16.24000002630055,16.629999969154596,16.675000078976154]","11","552.5","343","false","20","20","black","1","false","1","1","1105","686","rdk","21","16629","0.0-4.0-1.0-1.5","","mmlk0s","dsf","er","X","-1","-1","accuracy","{""name"":""Chrome"",""chrome"":true,""version"":""80.0"",""blink"":true,""windows"":true,""osname"":""Windows"",""osversion"":""10"",""a"":true}","","right","0.5","rdk","6","1","training_1","1536 x 864","1105 x 686","true",""
"180.60499988496304","69","false","e,t","t","5000","true","1","50","1","0","0.5","0","2","5","1.7","274.4","274.4","white","black","5","1","1","15.65045452761379","[5.634999834001064,16.890000086277723,16.534999944269657,16.525000100955367,16.730000032112002,16.90499996766448,16.66500000283122,16.74499991349876,16.64000004529953,16.309999860823154,16.57500001601875]","11","552.5","343","false","20","20","black","1","false","1","1","1105","686","rdk","24","17558","0.0-4.0-1.0-1.6","","mmlk0s","dsf","er","X","-1","-1","accuracy","{""name"":""Chrome"",""chrome"":true,""version"":""80.0"",""blink"":true,""windows"":true,""osname"":""Windows"",""osversion"":""10"",""a"":true}","","right","0.5","rdk","7","1","training_1","1536 x 864","1105 x 686","true",""
"200.7899999152869","69","false","e,t","t","5000","true","1","50","1","0","0.5","0","2","5","1.7","274.4","274.4","white","black","5","1","1","16.116249995927017","[10.169999906793237,17.075000097975135,16.31499989889562,16.625000163912773,16.534999944269657,16.730000032112002,16.654999926686287,16.73500007018447,16.8550000526011,16.629999969154596,16.64000004529953,16.429999843239784]","12","552.5","343","false","20","20","black","1","false","1","1","1105","686","rdk","27","18574","0.0-4.0-1.0-1.7","","mmlk0s","dsf","er","X","-1","-1","accuracy","{""name"":""Chrome"",""chrome"":true,""version"":""80.0"",""blink"":true,""windows"":true,""osname"":""Windows"",""osversion"":""10"",""a"":true}","","right","0.5","rdk","8","1","training_1","1536 x 864","1105 x 686","true",""
"205.49000008031726","69","true","e,t","e","5000","true","1","50","1","180","0.5","0","2","5","1.7","274.4","274.4","white","black","5","1","1","15.851666665791223","[6.999999983236194,16.83000009506941,16.644999850541353,16.90499996766448,16.450000228360295,16.55499986372888,16.460000071674585,16.869999933987856,17.21499999985099,15.90500003658235,16.730000032112002,16.654999926686287]","12","552.5","343","false","20","20","black","1","false","1","1","1105","686","rdk","30","19531","0.0-4.0-1.0-1.8","","mmlk0s","dsf","er","X","-1","-1","accuracy","{""name"":""Chrome"",""chrome"":true,""version"":""80.0"",""blink"":true,""windows"":true,""osname"":""Windows"",""osversion"":""10"",""a"":true}","","left","0.5","rdk","9","1","training_1","1536 x 864","1105 x 686","true",""
"219.92000006139278","69","true","e,t","e","5000","true","1","50","1","180","0.5","0","2","5","1.7","274.4","274.4","white","black","5","1","1","16.252307686954737","[11.054999893531203,16.950000077486038,16.614999854937196,16.61500008776784,16.670000040903687,16.55499986372888,16.44000015221536,16.994999954476953,16.654999926686287,16.44999999552965,16.78499998524785,16.925000119954348,16.56999997794628]","13","552.5","343","false","20","20","black","1","false","1","1","1105","686","rdk","33","20675","0.0-4.0-1.0-1.9","","mmlk0s","dsf","er","X","-1","-1","accuracy","{""name"":""Chrome"",""chrome"":true,""version"":""80.0"",""blink"":true,""windows"":true,""osname"":""Windows"",""osversion"":""10"",""a"":true}","","left","0.5","rdk","10","1","training_1","1536 x 864","1105 x 686","true",""
"200.27499995194376","69","false","e,t","t","5000","true","1","50","1","0","0.5","0","2","5","1.7","274.4","274.4","white","black","5","1","1","16.67727273888886","[17.084999941289425,16.629999969154596,16.785000218078494,16.964999958872795,15.88999992236495,16.790000023320317,16.850000014528632,16.57500001601875,16.749999951571226,16.645000083371997,16.485000029206276]","11","552.5","343","false","20","20","black","1","false","1","1","1105","686","rdk","36","21650","0.0-4.0-1.0-1.10","","mmlk0s","dsf","er","X","-1","-1","accuracy","{""name"":""Chrome"",""chrome"":true,""version"":""80.0"",""blink"":true,""windows"":true,""osname"":""Windows"",""osversion"":""10"",""a"":true}","","right","0.5","rdk","11","1","training_1","1536 x 864","1105 x 686","true",""
"208.19499995559454","69","false","e,t","t","5000","true","1","50","1","0","0.5","0","2","5","1.7","274.4","274.4","white","black","5","1","1","16.285000000304233","[11.909999884665012,16.795000061392784,16.675000078976154,16.610000049695373,16.614999854937196,16.68000011704862,16.57500001601875,16.739999875426292,16.70500007458031,17.029999988153577,16.589999897405505,16.49500010535121]","12","552.5","343","false","20","20","black","1","false","1","1","1105","686","rdk","39","22646","0.0-4.0-1.0-1.11","","mmlk0s","dsf","er","X","-1","-1","accuracy","{""name"":""Chrome"",""chrome"":true,""version"":""80.0"",""blink"":true,""windows"":true,""osname"":""Windows"",""osversion"":""10"",""a"":true}","","right","0.5","rdk","12","1","training_1","1536 x 864","1105 x 686","true",""
"395.7050000317395","69","false","e,t","t","5000","true","1","50","1","0","0.2","0","2","5","1.7","274.4","274.4","white","black","5","1","1","16.6310869541991","[16.36999985203147,16.410000156611204,17.139999894425273,16.16000011563301,16.469999914988875,16.8399999383837,16.59999997355044,16.70500007458031,16.47999999113381,16.589999897405505,16.75000018440187,16.820000018924475,16.544999787583947,16.620000125840306,16.66500000283122,16.64999988861382,17.105000093579292,16.26499998383224,16.659999964758754,16.68000011704862,16.969999996945262,16.469999914988875,16.550000058487058]","23","552.5","343","false","20","20","black","1","false","1","1","1105","686","rdk","45","38946","0.0-6.0-1.0-1.0","","mmlk0s","dsf","er","X","-1","-1","accuracy","{""name"":""Chrome"",""chrome"":true,""version"":""80.0"",""blink"":true,""windows"":true,""osname"":""Windows"",""osversion"":""10"",""a"":true}","","right","0.2","rdk","1","1","training_2","1536 x 864","1105 x 686","true",""
"166.35000007227063","69","true","e,t","e","5000","true","1","50","1","180","0.2","0","2","5","1.7","274.4","274.4","white","black","5","1","1","15.562499989755452","[5.594999995082617,16.850000014528632,16.824999824166298,16.47999999113381,16.509999986737967,16.570000210776925,16.654999926686287,16.76000002771616,16.76000002771616,16.619999893009663]","10","552.5","343","false","20","20","black","1","false","1","1","1105","686","rdk","48","39877","0.0-6.0-1.0-1.1","","mmlk0s","dsf","er","X","-1","-1","accuracy","{""name"":""Chrome"",""chrome"":true,""version"":""80.0"",""blink"":true,""windows"":true,""osname"":""Windows"",""osversion"":""10"",""a"":true}","","left","0.2","rdk","2","1","training_2","1536 x 864","1105 x 686","true",""
"187.13999981991947","69","true","e,t","e","5000","true","1","50","1","180","0.2","0","2","5","1.7","274.4","274.4","white","black","5","1","1","16.484545459124174","[14.574999921023846,16.835000133141875,17.56000006571412,15.794999897480011,16.515000024810433,16.694999998435378,17.384999897331,15.950000146403909,16.714999917894602,16.580000054091215,16.724999994039536]","11","552.5","343","false","20","20","black","1","false","1","1","1105","686","rdk","51","40789","0.0-6.0-1.0-1.2","","mmlk0s","dsf","er","X","-1","-1","accuracy","{""name"":""Chrome"",""chrome"":true,""version"":""80.0"",""blink"":true,""windows"":true,""osname"":""Windows"",""osversion"":""10"",""a"":true}","","left","0.2","rdk","3","1","training_2","1536 x 864","1105 x 686","true",""
"386.85000012628734","69","true","e,t","e","5000","true","1","50","1","180","0.2","0","2","5","1.7","274.4","274.4","white","black","5","1","1","16.221521736082174","[5.984999937936664,16.865000128746033,16.88999985344708,16.68000011704862,16.324999975040555,16.45500003360212,16.989999916404486,16.465000109747052,16.659999964758754,16.64000004529953,16.654999926686287,16.790000023320317,17.00999983586371,16.490000067278743,16.675000078976154,16.47999999113381,16.654999926686287,16.66500000283122,16.645000083371997,16.58499985933304,16.720000188797712,16.669999808073044,17.100000055506825]","23","552.5","343","false","20","20","black","1","false","1","1","1105","686","rdk","54","41997","0.0-6.0-1.0-1.3","","mmlk0s","dsf","er","X","-1","-1","accuracy","{""name"":""Chrome"",""chrome"":true,""version"":""80.0"",""blink"":true,""windows"":true,""osname"":""Windows"",""osversion"":""10"",""a"":true}","","left","0.2","rdk","4","1","training_2","1536 x 864","1105 x 686","true",""
"247.14999995194376","69","true","e,t","e","5000","true","1","50","1","180","0.2","0","2","5","1.7","274.4","274.4","white","black","5","1","1","16.18666665938993","[10.774999856948853,15.910000074654818,16.174999997019768,16.610000049695373,16.559999901801348,17.25500007160008,16.279999865218997,16.465000109747052,16.54500002041459,16.88999985344708,16.68000011704862,16.64999988861382,17.46500004082918,15.88999992236495,16.650000121444464]","15","552.5","343","false","20","20","black","1","false","1","1","1105","686","rdk","57","43054","0.0-6.0-1.0-1.4","","mmlk0s","dsf","er","X","-1","-1","accuracy","{""name"":""Chrome"",""chrome"":true,""version"":""80.0"",""blink"":true,""windows"":true,""osname"":""Windows"",""osversion"":""10"",""a"":true}","","left","0.2","rdk","5","1","training_2","1536 x 864","1105 x 686","true",""
"198.87500000186265","69","false","e,t","t","5000","true","1","50","1","0","0.2","0","2","5","1.7","274.4","274.4","white","black","5","1","1","15.83083332904304","[7.359999930486083,16.724999994039536,16.70500007458031,17.059999983757734,15.524999937042594,16.62499993108213,16.44999999552965,16.76000002771616,16.654999926686287,16.690000193193555,16.67499984614551,16.740000108256936]","12","552.5","343","false","20","20","black","1","false","1","1","1105","686","rdk","60","44141","0.0-6.0-1.0-1.5","","mmlk0s","dsf","er","X","-1","-1","accuracy","{""name"":""Chrome"",""chrome"":true,""version"":""80.0"",""blink"":true,""windows"":true,""osname"":""Windows"",""osversion"":""10"",""a"":true}","","right","0.2","rdk","6","1","training_2","1536 x 864","1105 x 686","true",""
"186.75000010989606","69","true","e,t","e","5000","true","1","50","1","180","0.2","0","2","5","1.7","274.4","274.4","white","black","5","1","1","16.68590908362107","[16.98499987833202,16.76000002771616,18.46499997191131,14.680000022053719,16.635000007227063,16.685000155121088,16.724999994039536,16.68999996036291,16.619999893009663,16.5350001771003,16.764999832957983]","11","552.5","343","false","20","20","black","1","false","1","1","1105","686","rdk","63","45252","0.0-6.0-1.0-1.6","","mmlk0s","dsf","er","X","-1","-1","accuracy","{""name"":""Chrome"",""chrome"":true,""version"":""80.0"",""blink"":true,""windows"":true,""osname"":""Windows"",""osversion"":""10"",""a"":true}","","left","0.2","rdk","7","1","training_2","1536 x 864","1105 x 686","true",""
"184.61499991826713","69","false","e,t","t","5000","true","1","50","1","0","0.2","0","2","5","1.7","274.4","274.4","white","black","5","1","1","16.31000000898811","[13.294999953359365,16.414999961853027,16.690000193193555,16.419999999925494,16.8399999383837,16.515000024810433,16.519999830052257,16.690000193193555,16.804999904707074,17.149999970570207,16.07000012882054]","11","552.5","343","false","20","20","black","1","false","1","1","1105","686","rdk","66","46271","0.0-6.0-1.0-1.7","","mmlk0s","dsf","er","X","-1","-1","accuracy","{""name"":""Chrome"",""chrome"":true,""version"":""80.0"",""blink"":true,""windows"":true,""osname"":""Windows"",""osversion"":""10"",""a"":true}","","right","0.2","rdk","8","1","training_2","1536 x 864","1105 x 686","true",""
"199.79500002227724","69","false","e,t","t","5000","true","1","50","1","0","0.2","0","2","5","1.7","274.4","274.4","white","black","5","1","1","15.577083337120712","[3.7249999586492777,16.82500005699694,16.67499984614551,16.419999999925494,17.48500019311905,15.679999953135848,16.704999841749668,16.525000100955367,16.844999976456165,16.645000083371997,16.654999926686287,16.740000108256936]","12","552.5","343","false","20","20","black","1","false","1","1","1105","686","rdk","69","47346","0.0-6.0-1.0-1.8","","mmlk0s","dsf","er","X","-1","-1","accuracy","{""name"":""Chrome"",""chrome"":true,""version"":""80.0"",""blink"":true,""windows"":true,""osname"":""Windows"",""osversion"":""10"",""a"":true}","","right","0.2","rdk","9","1","training_2","1536 x 864","1105 x 686","true",""
"184.3449999578297","69","false","e,t","t","5000","true","1","50","1","0","0.2","0","2","5","1.7","274.4","274.4","white","black","5","1","1","15.852272722192787","[8.179999887943268,16.330000013113022,16.874999972060323,16.310000093653798,16.684999922290444,16.670000040903687,16.68999996036291,16.59999997355044,16.509999986737967,16.905000200495124,16.619999893009663]","11","552.5","343","false","20","20","black","1","false","1","1","1105","686","rdk","72","48259","0.0-6.0-1.0-1.9","","mmlk0s","dsf","er","X","-1","-1","accuracy","{""name"":""Chrome"",""chrome"":true,""version"":""80.0"",""blink"":true,""windows"":true,""osname"":""Windows"",""osversion"":""10"",""a"":true}","","right","0.2","rdk","10","1","training_2","1536 x 864","1105 x 686","true",""
"200.69000008516014","69","false","e,t","t","5000","true","1","50","1","0","0.2","0","2","5","1.7","274.4","274.4","white","black","5","1","1","15.564166669112941","[3.0349998269230127,16.76000002771616,16.78499998524785,16.44999999552965,16.790000023320317,16.670000040903687,16.465000109747052,17.95499981380999,16.220000106841326,15.894999960437417,16.61500008776784,17.130000051110983]","12","552.5","343","false","20","20","black","1","false","1","1","1105","686","rdk","75","49247","0.0-6.0-1.0-1.10","","mmlk0s","dsf","er","X","-1","-1","accuracy","{""name"":""Chrome"",""chrome"":true,""version"":""80.0"",""blink"":true,""windows"":true,""osname"":""Windows"",""osversion"":""10"",""a"":true}","","right","0.2","rdk","11","1","training_2","1536 x 864","1105 x 686","true",""
"180.79500016756356","69","true","e,t","e","5000","true","1","50","1","180","0.2","0","2","5","1.7","274.4","274.4","white","black","5","1","1","15.872727275233377","[8.050000062212348,17.380000092089176,15.970000065863132,16.629999969154596,16.46499987691641,16.675000078976154,16.804999904707074,16.71000011265278,17.139999894425273,16.130000120028853,16.644999850541353]","11","552.5","343","false","20","20","black","1","false","1","1","1105","686","rdk","78","50156","0.0-6.0-1.0-1.11","","mmlk0s","dsf","er","X","-1","-1","accuracy","{""name"":""Chrome"",""chrome"":true,""version"":""80.0"",""blink"":true,""windows"":true,""osname"":""Windows"",""osversion"":""10"",""a"":true}","","left","0.2","rdk","12","1","training_2","1536 x 864","1105 x 686","true",""
"374.8249998316169","69","true","e,t","e","5000","true","1","50","1","180","0.2","0","2","5","1.7","274.4","274.4","white","black","5","1","1","16.47409090814604","[12.485000072047114,16.635000007227063,16.71999995596707,16.439999919384718,16.675000078976154,16.610000049695373,16.749999951571226,16.659999964758754,16.474999953061342,16.860000090673566,16.59999997355044,16.820000018924475,16.67499984614551,16.460000071674585,16.83000009506941,16.62499993108213,16.59999997355044,16.659999964758754,16.595000168308616,16.814999980852008,16.869999933987856,16.56999997794628]","22","552.5","343","false","20","20","black","1","false","1","1","1105","686","rdk","84","82429","0.0-8.0-1.0-1.0","","mmlk0s","dsf","er","X","69","830.674999859184","accuracy","{""name"":""Chrome"",""chrome"":true,""version"":""80.0"",""blink"":true,""windows"":true,""osname"":""Windows"",""osversion"":""10"",""a"":true}","","left","0.2","rdk","1","1","training_3","1536 x 864","1105 x 686","true","1453.65499984473"
"349.4299999438226","69","false","e,t","t","5000","true","1","50","1","0","0.2","0","2","5","1.7","274.4","274.4","white","black","5","1","1","16.300238092385587","[9.205000009387732,16.349999932572246,16.835000133141875,16.45999983884394,16.61500008776784,16.619999893009663,16.700000036507845,16.76000002771616,16.650000121444464,16.509999986737967,16.694999998435378,16.594999935477972,17.32999994419515,16.055000014603138,16.730000032112002,16.964999958872795,16.54500002041459,16.435000114142895,16.589999897405505,17.419999931007624,16.24000002630055]","21","552.5","343","false","20","20","black","1","false","1","1","1105","686","rdk","87","85741","0.0-8.0-1.0-1.1","","mmlk0s","dsf","er","X","15","561.2899998668581","accuracy","{""name"":""Chrome"",""chrome"":true,""version"":""80.0"",""blink"":true,""windows"":true,""osname"":""Windows"",""osversion"":""10"",""a"":true}","","right","0.2","rdk","2","1","training_3","1536 x 864","1105 x 686","true","1353.289999999106"
"355.71499983780086","69","false","e,t","t","5000","true","1","50","1","0","0.2","0","2","5","1.7","274.4","274.4","white","black","5","1","1","16.700000003246323","[17.340000020340085,17.489999998360872,16.164999920874834,16.475000185891986,16.629999969154596,16.549999825656414,16.580000054091215,16.820000018924475,16.66500000283122,16.509999986737967,16.80999994277954,16.405000118538737,16.804999904707074,17.410000087693334,16.099999891594052,16.629999969154596,16.585000092163682,16.684999922290444,16.570000210776925,16.60999981686473,16.865000128746033]","21","552.5","343","false","20","20","black","1","false","1","1","1105","686","rdk","90","88955","0.0-8.0-1.0-1.2","","mmlk0s","dsf","er","X","50","1138.1300000939518","accuracy","{""name"":""Chrome"",""chrome"":true,""version"":""80.0"",""blink"":true,""windows"":true,""osname"":""Windows"",""osversion"":""10"",""a"":true}","","right","0.2","rdk","3","1","training_3","1536 x 864","1105 x 686","true","2003.020000178367"
"279.0800000075251","69","false","e,t","t","5000","true","1","50","1","0","0.2","0","2","5","1.7","274.4","274.4","white","black","5","1","1","15.831470585373395","[2.2950000129640102,16.94500003941357,17.179999966174364,16.310000093653798,16.874999972060323,16.469999914988875,16.589999897405505,16.42500003799796,16.910000005736947,16.94500003941357,16.270000021904707,16.57500001601875,16.765000065788627,16.534999944269657,16.645000083371997,17.134999856352806,16.26499998383224]","17","552.5","343","false","20","20","black","1","false","1","1","1105","686","rdk","93","92743","0.0-8.0-1.0-1.3","","mmlk0s","dsf","er","X","60","3902.0849999506027","accuracy","{""name"":""Chrome"",""chrome"":true,""version"":""80.0"",""blink"":true,""windows"":true,""osname"":""Windows"",""osversion"":""10"",""a"":true}","","right","0.2","rdk","4","1","training_3","1536 x 864","1105 x 686","true","4390.235000057146"
"298.93000004813075","69","true","e,t","e","5000","true","1","50","1","180","0.2","0","2","5","1.7","274.4","274.4","white","black","5","1","1","16.213333337671227","[9.560000151395798,16.635000007227063,16.429999843239784,16.275000059977174,16.555000096559525,16.619999893009663,16.499999910593033,16.795000061392784,16.715000150725245,16.47999999113381,16.6999998036772,16.810000175610185,16.429999843239784,16.77500014193356,16.58499985933304,16.765000065788627,16.580000054091215,16.629999969154596]","18","552.5","343","false","20","20","black","1","false","1","1","1105","686","rdk","96","98940","0.0-8.0-1.0-1.4","","mmlk0s","dsf","er","X","55","473.81999995559454","accuracy","{""name"":""Chrome"",""chrome"":true,""version"":""80.0"",""blink"":true,""windows"":true,""osname"":""Windows"",""osversion"":""10"",""a"":true}","","left","0.2","rdk","5","1","training_3","1536 x 864","1105 x 686","true","2546.949999872595"
"438.3449999149889","69","true","e,t","e","5000","true","1","50","1","180","0.2","0","2","5","1.7","274.4","274.4","white","black","5","1","1","16.301153845583592","[7.775000063702464,16.220000106841326,16.57999982126057,16.620000125840306,16.59999997355044,16.844999976456165,16.525000100955367,16.534999944269657,16.724999994039536,16.950000077486038,16.439999919384718,16.589999897405505,16.73500007018447,16.76000002771616,16.509999986737967,16.765000065788627,16.804999904707074,16.804999904707074,16.44999999552965,16.59000013023615,16.57500001601875,16.754999989643693,16.88000001013279,16.45500003360212,16.714999917894602,16.62499993108213]","26","552.5","343","false","20","20","black","1","false","1","1","1105","686","rdk","99","103431","0.0-8.0-1.0-1.5","","mmlk0s","dsf","er","X","50","759.2700000386685","accuracy","{""name"":""Chrome"",""chrome"":true,""version"":""80.0"",""blink"":true,""windows"":true,""osname"":""Windows"",""osversion"":""10"",""a"":true}","","left","0.2","rdk","6","1","training_3","1536 x 864","1105 x 686","true","1247.260000091046"
"1357.7250000089407","69","true","e,t","e","5000","true","1","50","1","180","0.2","0","2","5","1.7","274.4","274.4","white","black","5","1","1","16.64641975241219","[14.86500003375113,16.910000005736947,16.324999975040555,17.054999945685267,16.430000076070428,16.59999997355044,16.790000023320317,16.499999910593033,16.724999994039536,16.720000188797712,17.234999919310212,16.069999895989895,16.68999996036291,16.720000188797712,17.159999813884497,16.195000149309635,16.709999879822135,16.56999997794628,16.49500010535121,16.64999988861382,16.65500015951693,16.730000032112002,16.605000011622906,16.679999884217978,16.659999964758754,16.675000078976154,16.679999884217978,17.310000024735928,16.250000102445483,16.55499986372888,16.785000218078494,16.589999897405505,16.64000004529953,16.539999982342124,16.644999850541353,17.18500000424683,16.140000196173787,16.779999947175384,16.68999996036291,16.474999953061342,16.779999947175384,16.620000125840306,17.14499993249774,16.64000004529953,16.21500006876886,17.00999983586371,16.290000174194574,16.68999996036291,16.619999893009663,16.97500003501773,16.40000008046627,16.614999854937196,16.57500001601875,16.740000108256936,16.70500007458031,16.71999995596707,16.519999830052257,17.090000212192535,17.054999945685267,16.390000004321337,16.134999925270677,17.364999977871776,15.970000065863132,16.860000090673566,16.549999825656414,16.465000109747052,16.989999916404486,16.654999926686287,16.620000125840306,16.70500007458031,16.694999998435378,16.659999964758754,16.559999901801348,16.700000036507845,16.70500007458031,16.779999947175384,16.795000061392784,16.45500003360212,16.669999808073044,16.580000054091215,16.964999958872795]","81","552.5","343","false","20","20","black","1","false","1","1","1105","686","rdk","102","107544","0.0-8.0-1.0-1.6","","mmlk0s","dsf","er","X","50","649.0950000006706","accuracy","{""name"":""Chrome"",""chrome"":true,""version"":""80.0"",""blink"":true,""windows"":true,""osname"":""Windows"",""osversion"":""10"",""a"":true}","","left","0.2","rdk","7","1","training_3","1536 x 864","1105 x 686","true","1193.9300000667572"
"388.6049999855459","69","false","e,t","t","5000","true","1","50","1","0","0.2","0","2","5","1.7","274.4","274.4","white","black","5","1","1","16.246956520025496","[7.299999939277768,16.78499998524785,16.530000139027834,16.395000042393804,16.52999990619719,16.71000011265278,16.714999917894602,16.675000078976154,16.67499984614551,16.700000036507845,16.74499991349876,16.65500015951693,16.564999939873815,16.779999947175384,16.509999986737967,17.01500010676682,16.74499991349876,16.330000013113022,16.715000150725245,16.619999893009663,16.61500008776784,16.684999922290444,16.684999922290444]","23","552.5","343","false","20","20","black","1","false","1","1","1105","686","rdk","105","110632","0.0-8.0-1.0-1.7","","mmlk0s","dsf","er","X","47","592.8899999707937","accuracy","{""name"":""Chrome"",""chrome"":true,""version"":""80.0"",""blink"":true,""windows"":true,""osname"":""Windows"",""osversion"":""10"",""a"":true}","","right","0.2","rdk","8","1","training_3","1536 x 864","1105 x 686","true","1496.9699999783188"
"477.03499998897314","69","true","e,t","e","5000","true","1","50","1","180","0.2","0","2","5","1.7","274.4","274.4","white","black","5","1","1","17.27055555588945","[33.2349999807775,16.370000084862113,16.754999989643693,16.754999989643693,16.439999919384718,16.57500001601875,16.70500007458031,16.66500000283122,16.80999994277954,16.52999990619719,16.64000004529953,16.840000171214342,16.704999841749668,16.430000076070428,16.779999947175384,16.940000001341105,16.45500003360212,17.155000008642673,16.115000005811453,17.18500000424683,16.060000052675605,16.754999989643693,16.564999939873815,16.714999917894602,16.805000137537718,16.4899998344481,16.83000009506941]","27","552.5","343","false","20","20","black","1","false","1","1","1105","686","rdk","108","114111","0.0-8.0-1.0-1.8","","mmlk0s","dsf","er","X","50","978.4399999771267","accuracy","{""name"":""Chrome"",""chrome"":true,""version"":""80.0"",""blink"":true,""windows"":true,""osname"":""Windows"",""osversion"":""10"",""a"":true}","","left","0.2","rdk","9","1","training_3","1536 x 864","1105 x 686","true","1658.32499996759"
"461.78000001236796","69","false","e,t","t","5000","true","1","50","1","0","0.2","0","2","5","1.7","274.4","274.4","white","black","5","1","1","16.398214286060206","[8.824999909847975,16.869999933987856,16.890000086277723,16.619999893009663,16.345000127330422,16.619999893009663,16.724999994039536,16.770000103861094,16.589999897405505,16.460000071674585,16.76000002771616,16.714999917894602,16.66500000283122,16.71000011265278,17.23999995738268,16.00000006146729,16.74499991349876,16.989999916404486,16.355000203475356,17.054999945685267,16.229999950155616,16.555000096559525,16.884999815374613,16.790000023320317,16.820000018924475,16.324999975040555,16.435000114142895,17.16000004671514]","28","552.5","343","false","20","20","black","1","false","1","1","1105","686","rdk","111","117737","0.0-8.0-1.0-1.9","","mmlk0s","dsf","er","X","47","1664.555000141263","accuracy","{""name"":""Chrome"",""chrome"":true,""version"":""80.0"",""blink"":true,""windows"":true,""osname"":""Windows"",""osversion"":""10"",""a"":true}","","right","0.2","rdk","10","1","training_3","1536 x 864","1105 x 686","true","2624.55500010401"
"284.9349998869002","69","true","e,t","e","5000","true","1","50","1","180","0.2","0","2","5","1.7","274.4","274.4","white","black","5","1","1","15.995882355662829","[6.0900000389665365,16.25500014051795,16.51499979197979,16.715000150725245,16.779999947175384,16.925000119954348,16.05999981984496,17.274999991059303,16.61500008776784,16.09500008635223,16.605000011622906,16.619999893009663,16.675000078976154,16.8399999383837,16.539999982342124,16.610000049695373,16.714999917894602]","17","552.5","343","false","20","20","black","1","false","1","1","1105","686","rdk","114","121480","0.0-8.0-1.0-1.10","","mmlk0s","dsf","er","X","47","442.60499998927116","accuracy","{""name"":""Chrome"",""chrome"":true,""version"":""80.0"",""blink"":true,""windows"":true,""osname"":""Windows"",""osversion"":""10"",""a"":true}","","left","0.2","rdk","11","1","training_3","1536 x 864","1105 x 686","true","994.7149998042732"
"338.7900001835078","69","false","e,t","t","5000","true","1","50","1","0","0.2","0","2","5","1.7","274.4","274.4","white","black","5","1","1","16.041904765491683","[3.6750000435858965,16.66500000283122,16.474999953061342,16.80000009946525,16.539999982342124,16.659999964758754,16.82500005699694,16.669999808073044,16.580000054091215,16.985000111162663,16.52999990619719,16.509999986737967,16.550000058487058,16.8399999383837,16.620000125840306,16.629999969154596,16.700000036507845,16.679999884217978,16.534999944269657,16.675000078976154,16.73500007018447]","21","552.5","343","false","20","20","black","1","false","1","1","1105","686","rdk","117","124319","0.0-8.0-1.0-1.11","","mmlk0s","dsf","er","X","51","659.1599998064339","accuracy","{""name"":""Chrome"",""chrome"":true,""version"":""80.0"",""blink"":true,""windows"":true,""osname"":""Windows"",""osversion"":""10"",""a"":true}","","right","0.2","rdk","12","1","training_3","1536 x 864","1105 x 686","true","1179.0299999993294"
"1095.8199999295175","69","true","e,t","e","5000","true","1","50","1","180","0.2","0","2","5","1.7","274.4","274.4","white","black","5","1","1","16.527803029131256","[7.694999920204282,16.94500003941357,16.779999947175384,16.580000054091215,16.26499998383224,16.739999875426292,16.56000013463199,16.644999850541353,16.670000040903687,16.62499993108213,16.690000193193555,16.824999824166298,16.66500000283122,16.47999999113381,16.700000036507845,16.68999996036291,16.770000103861094,16.70500007458031,16.594999935477972,16.589999897405505,16.754999989643693,16.71000011265278,16.90499996766448,16.395000042393804,16.68999996036291,16.525000100955367,16.779999947175384,16.724999994039536,16.564999939873815,16.635000007227063,17.075000097975135,16.270000021904707,16.644999850541353,16.71999995596707,16.65500015951693,16.610000049695373,16.659999964758754,16.704999841749668,16.595000168308616,16.79499982856214,17.130000051110983,16.26499998383224,17.105000093579292,16.28999994136393,16.555000096559525,16.519999830052257,16.860000090673566,17.09500001743436,16.19499991647899,16.550000058487058,16.820000018924475,16.56999997794628,16.645000083371997,16.629999969154596,16.76999987103045,16.59000013023615,16.644999850541353,16.83000009506941,16.730000032112002,16.395000042393804,16.724999994039536,17.179999966174364,16.159999882802367,16.78499998524785,16.490000067278743,16.675000078976154]","66","552.5","343","false","20","20","black","1","false","1","1","1105","686","rdk","124","143906","0.0-10.0-2.0-1.0","","mmlk0s","dsf","er","X","32","3106.445000041276","accuracy","{""name"":""Chrome"",""chrome"":true,""version"":""80.0"",""blink"":true,""windows"":true,""osname"":""Windows"",""osversion"":""10"",""a"":true}","accuracy","left","0.2","rdk","1","1","experimental","1536 x 864","1105 x 686","true","4050.8200000040233"
"575.1150001306087","69","false","e,t","t","5000","true","1","50","1","0","0.2","0","2","5","1.7","274.4","274.4","white","black","5","1","1","16.465441180009613","[10.045000119134784,16.684999922290444,17.51999999396503,16.700000036507845,15.72000002488494,17.149999970570207,16.26499998383224,16.54500002041459,16.76000002771616,16.97500003501773,16.429999843239784,16.585000092163682,16.605000011622906,16.99999999254942,16.469999914988875,16.419999999925494,17.130000051110983,16.49500010535121,16.764999832957983,16.5200000628829,16.92999992519617,16.195000149309635,16.564999939873815,16.64000004529953,16.76999987103045,16.770000103861094,16.58499985933304,16.5200000628829,16.675000078976154,16.724999994039536,16.610000049695373,16.76999987103045,16.564999939873815,16.720000188797712]","34","552.5","343","false","20","20","black","1","false","1","1","1105","686","rdk","127","149649","0.0-10.0-2.0-1.1","","mmlk0s","dsf","er","X","66","595.8499999251217","accuracy","{""name"":""Chrome"",""chrome"":true,""version"":""80.0"",""blink"":true,""windows"":true,""osname"":""Windows"",""osversion"":""10"",""a"":true}","accuracy","right","0.2","rdk","2","1","experimental","1536 x 864","1105 x 686","true","1099.794999929145"
"1511.790000135079","69","false","e,t","t","5000","true","1","50","1","0","0.2","0","2","5","1.7","274.4","274.4","white","black","5","1","1","16.570054946446813","[7.810000097379088,16.814999980852008,16.40000008046627,16.68999996036291,16.894999891519547,16.5200000628829,16.805000137537718,16.549999825656414,16.419999999925494,16.80000009946525,16.644999850541353,16.730000032112002,16.88000001013279,16.650000121444464,16.635000007227063,16.379999928176403,16.714999917894602,18.290000036358833,15.085000079125166,16.850000014528632,16.44999999552965,16.70500007458031,16.57999982126057,16.985000111162663,16.43499988131225,16.71000011265278,16.559999901801348,17.355000134557486,16.07999997213483,16.790000023320317,16.709999879822135,16.515000024810433,16.71999995596707,16.780000180006027,16.58499985933304,16.715000150725245,16.669999808073044,16.370000084862113,16.844999976456165,16.770000103861094,16.669999808073044,16.47999999113381,17.050000140443444,16.42500003799796,16.694999998435378,16.730000032112002,16.589999897405505,16.555000096559525,16.59999997355044,17.190000042319298,16.604999778792262,16.235000221058726,16.824999824166298,16.670000040903687,16.580000054091215,16.68999996036291,16.594999935477972,16.65500015951693,17.109999898821115,16.324999975040555,16.64000004529953,16.694999998435378,16.564999939873815,16.650000121444464,16.610000049695373,16.739999875426292,16.5200000628829,16.700000036507845,16.884999815374613,16.754999989643693,16.580000054091215,16.629999969154596,16.80000009946525,16.709999879822135,16.555000096559525,16.44999999552965,16.92000008188188,16.47999999113381,16.684999922290444,16.790000023320317,16.635000007227063,16.439999919384718,16.955000115558505,16.619999893009663,16.465000109747052,16.899999929592013,16.675000078976154,16.564999939873815,16.5049999486655,16.71999995596707,16.865000128746033]","91","552.5","343","false","20","20","black","1","false","1","1","1105","686","rdk","130","153188","0.0-10.0-2.0-1.2","","mmlk0s","dsf","er","X","61","560.7249999884516","accuracy","{""name"":""Chrome"",""chrome"":true,""version"":""80.0"",""blink"":true,""windows"":true,""osname"":""Windows"",""osversion"":""10"",""a"":true}","accuracy","right","0.2","rdk","3","1","experimental","1536 x 864","1105 x 686","true","1304.7650000080466"
"1197.3999999463558","69","false","e,t","t","5000","true","1","50","1","0","0.2","0","2","5","1.7","274.4","274.4","white","black","5","1","1","16.675422535422193","[17.47000007890165,16.80999994277954,16.330000013113022,16.679999884217978,16.805000137537718,16.64999988861382,16.625000163912773,16.539999982342124,16.86499989591539,16.610000049695373,16.524999868124723,16.835000133141875,16.654999926686287,16.530000139027834,16.820000018924475,16.659999964758754,16.52999990619719,16.654999926686287,16.61500008776784,16.61500008776784,16.64999988861382,16.74499991349876,17.120000207796693,16.354999970644712,16.724999994039536,16.474999953061342,16.694999998435378,16.68999996036291,16.650000121444464,17.334999982267618,16.05999981984496,16.82500005699694,16.585000092163682,16.539999982342124,16.844999976456165,16.645000083371997,16.62499993108213,16.68999996036291,16.71000011265278,16.614999854937196,16.460000071674585,16.70500007458031,16.6999998036772,16.71000011265278,16.765000065788627,16.57999982126057,16.790000023320317,16.585000092163682,16.56999997794628,16.86499989591539,16.605000011622906,16.65500015951693,16.580000054091215,16.859999857842922,16.555000096559525,16.629999969154596,16.76000002771616,16.594999935477972,16.59999997355044,16.76000002771616,16.589999897405505,16.80000009946525,16.585000092163682,16.57500001601875,16.824999824166298,16.59999997355044,16.65500015951693,16.605000011622906,16.764999832957983,16.685000155121088,16.534999944269657]","71","552.5","343","false","20","20","black","1","false","1","1","1105","686","rdk","133","157198","0.0-10.0-2.0-1.3","","mmlk0s","dsf","er","X","50","1496.8999999109656","accuracy","{""name"":""Chrome"",""chrome"":true,""version"":""80.0"",""blink"":true,""windows"":true,""osname"":""Windows"",""osversion"":""10"",""a"":true}","accuracy","right","0.2","rdk","4","1","experimental","1536 x 864","1105 x 686","true","2233.839999884367"
"2443.6449999921024","69","false","e,t","t","5000","true","1","50","1","0","0.2","0","2","5","1.7","274.4","274.4","white","black","5","1","1","16.593911564674507","[6.019999971613288,17.029999988153577,16.5049999486655,16.56999997794628,16.550000058487058,16.774999909102917,16.59000013023615,16.814999980852008,16.68999996036291,16.539999982342124,16.635000007227063,16.994999954476953,16.5049999486655,16.45500003360212,16.80000009946525,17.299999948590994,15.9750001039356,16.509999986737967,16.704999841749668,16.820000018924475,16.505000181496143,16.679999884217978,16.670000040903687,16.68999996036291,16.844999976456165,16.54500002041459,16.64000004529953,16.80999994277954,16.439999919384718,16.675000078976154,16.620000125840306,16.714999917894602,16.645000083371997,16.659999964758754,16.64000004529953,16.72999979928136,16.690000193193555,16.86499989591539,16.62499993108213,16.650000121444464,16.58499985933304,16.605000011622906,16.82500005699694,16.515000024810433,16.714999917894602,16.585000092163682,16.654999926686287,16.700000036507845,16.659999964758754,16.68000011704862,16.614999854937196,17.225000075995922,16.069999895989895,16.75000018440187,16.730000032112002,16.739999875426292,16.670000040903687,16.68999996036291,16.71999995596707,16.605000011622906,16.59999997355044,16.5350001771003,16.88999985344708,16.629999969154596,16.605000011622906,16.59000013023615,16.614999854937196,16.754999989643693,16.585000092163682,16.68999996036291,16.66500000283122,17.04000006429851,16.45500003360212,16.55499986372888,16.780000180006027,16.704999841749668,16.65500015951693,16.659999964758754,16.659999964758754,16.52999990619719,16.659999964758754,16.635000007227063,16.675000078976154,16.585000092163682,16.739999875426292,16.650000121444464,16.76000002771616,16.574999783188105,16.660000197589397,16.704999841749668,16.59000013023615,16.59999997355044,16.795000061392784,16.654999926686287,16.670000040903687,16.605000011622906,16.899999929592013,16.589999897405505,16.810000175610185,16.52999990619719,16.580000054091215,16.684999922290444,16.820000018924475,16.539999982342124,16.54500002041459,18.009999999776483,15.52000013180077,16.559999901801348,16.645000083371997,16.66500000283122,16.669999808073044,16.610000049695373,16.715000150725245,16.6999998036772,16.64000004529953,16.8550000526011,16.910000005736947,16.21500006876886,16.850000014528632,16.549999825656414,16.720000188797712,16.539999982342124,16.854999819770455,16.70500007458031,16.49500010535121,16.979999840259552,16.44000015221536,16.779999947175384,16.59999997355044,16.515000024810433,16.88999985344708,16.635000007227063,16.56000013463199,16.594999935477972,16.654999926686287,16.68000011704862,16.59999997355044,16.899999929592013,16.66500000283122,16.475000185891986,16.774999909102917,16.730000032112002,16.635000007227063,16.610000049695373,16.559999901801348,16.684999922290444,16.685000155121088]","147","552.5","343","false","20","20","black","1","false","1","1","1105","686","rdk","136","162905","0.0-10.0-2.0-1.4","","mmlk0s","dsf","er","X","57","2597.5150000303984","accuracy","{""name"":""Chrome"",""chrome"":true,""version"":""80.0"",""blink"":true,""windows"":true,""osname"":""Windows"",""osversion"":""10"",""a"":true}","accuracy","right","0.2","rdk","5","1","experimental","1536 x 864","1105 x 686","true","3894.2650000099093"
"2433.079999871552","69","true","e,t","e","5000","true","1","50","1","180","0.2","0","2","5","1.7","274.4","274.4","white","black","5","1","1","16.650410959088845","[14.964999863877892,16.300000017508864,16.629999969154596,16.625000163912773,16.534999944269657,16.859999857842922,16.75000018440187,16.534999944269657,16.58499985933304,16.810000175610185,16.820000018924475,16.294999979436398,16.86499989591539,16.490000067278743,16.66500000283122,16.910000005736947,16.580000054091215,16.534999944269657,16.694999998435378,16.610000049695373,16.679999884217978,16.594999935477972,16.63000020198524,17.26499991491437,16.180000035092235,16.88000001013279,16.519999830052257,16.68000011704862,16.635000007227063,16.894999891519547,16.500000143423676,16.619999893009663,16.790000023320317,16.59000013023615,16.574999783188105,16.765000065788627,16.525000100955367,16.66500000283122,16.610000049695373,16.814999980852008,16.559999901801348,17.294999910518527,16.33500005118549,16.42500003799796,16.795000061392784,16.670000040903687,16.619999893009663,16.790000023320317,17.070000059902668,16.12999988719821,16.900000162422657,16.419999999925494,16.619999893009663,16.564999939873815,16.675000078976154,16.804999904707074,16.515000024810433,16.779999947175384,16.78499998524785,16.515000024810433,16.620000125840306,16.684999922290444,16.635000007227063,16.675000078976154,16.679999884217978,16.629999969154596,16.68000011704862,16.92999992519617,16.610000049695373,17.019999912008643,16.36000000871718,17.115000169724226,15.969999833032489,16.605000011622906,16.995000187307596,16.774999909102917,16.294999979436398,16.679999884217978,16.770000103861094,16.64000004529953,16.5049999486655,16.66500000283122,16.670000040903687,16.814999980852008,17.029999988153577,16.439999919384718,17.0650000218302,16.130000120028853,17.174999928101897,16.09500008635223,16.605000011622906,16.58499985933304,16.68999996036291,16.724999994039536,17.025000182911754,16.814999980852008,16.254999907687306,16.460000071674585,16.670000040903687,16.814999980852008,16.59999997355044,16.804999904707074,16.65500015951693,16.399999847635627,16.80999994277954,16.56500017270446,16.704999841749668,16.875000204890966,16.509999986737967,16.62499993108213,16.64000004529953,16.884999815374613,16.45500003360212,16.68999996036291,16.620000125840306,16.68999996036291,16.68000011704862,16.605000011622906,16.704999841749668,16.675000078976154,16.714999917894602,16.65500015951693,16.629999969154596,16.68999996036291,16.57500001601875,16.980000073090196,16.589999897405505,16.54500002041459,16.619999893009663,16.68999996036291,16.77500014193356,16.444999957457185,16.73500007018447,16.969999996945262,16.404999885708094,16.724999994039536,16.585000092163682,16.874999972060323,16.414999961853027,16.71999995596707,16.850000014528632,16.585000092163682,16.700000036507845,16.86499989591539,16.390000004321337,16.685000155121088]","146","552.5","343","false","20","20","black","1","false","1","1","1105","686","rdk","139","170486","0.0-10.0-2.0-1.5","","mmlk0s","dsf","er","X","61","258434.549999889","accuracy","{""name"":""Chrome"",""chrome"":true,""version"":""80.0"",""blink"":true,""windows"":true,""osname"":""Windows"",""osversion"":""10"",""a"":true}","accuracy","left","0.2","rdk","6","1","experimental","1536 x 864","1105 x 686","true","259106.7899998743"
"3485.4000001214445","69","true","e,t","e","5000","true","1","50","1","180","0.2","0","2","5","1.7","274.4","274.4","white","black","5","1","1","16.600550239255124","[2.7550000231713057,16.820000018924475,16.61500008776784,16.709999879822135,16.64000004529953,16.499999910593033,16.71000011265278,16.71999995596707,16.66500000283122,16.534999944269657,16.71999995596707,16.635000007227063,16.730000032112002,16.675000078976154,16.779999947175384,16.66500000283122,16.62499993108213,16.59000013023615,16.71999995596707,16.47999999113381,16.724999994039536,16.59999997355044,16.890000086277723,16.66500000283122,16.5200000628829,16.829999862238765,16.534999944269657,16.84500020928681,16.644999850541353,16.550000058487058,16.550000058487058,16.64999988861382,16.740000108256936,16.949999844655395,16.78499998524785,16.260000178590417,16.76000002771616,16.6999998036772,16.600000206381083,16.74499991349876,16.73500007018447,16.64999988861382,16.564999939873815,16.629999969154596,16.57500001601875,16.685000155121088,16.610000049695373,16.74499991349876,16.62499993108213,16.795000061392784,16.629999969154596,16.820000018924475,16.550000058487058,16.534999944269657,16.714999917894602,17.16000004671514,16.270000021904707,16.509999986737967,16.850000014528632,16.940000001341105,16.26499998383224,16.71999995596707,16.595000168308616,16.829999862238765,16.670000040903687,16.474999953061342,17.220000037923455,16.085000010207295,16.8550000526011,16.704999841749668,16.75000018440187,16.549999825656414,16.675000078976154,16.694999998435378,16.460000071674585,16.915000043809414,16.594999935477972,16.559999901801348,16.740000108256936,16.790000023320317,16.724999994039536,16.670000040903687,16.724999994039536,16.869999933987856,16.270000021904707,16.714999917894602,16.684999922290444,16.530000139027834,16.709999879822135,16.70500007458031,16.62499993108213,16.54500002041459,16.625000163912773,17.02499995008111,16.36999985203147,16.83000009506941,16.49500010535121,16.659999964758754,16.669999808073044,16.885000048205256,16.595000168308616,16.605000011622906,16.804999904707074,16.539999982342124,16.57500001601875,16.580000054091215,16.78499998524785,16.619999893009663,16.68000011704862,16.919999849051237,16.45500003360212,16.64000004529953,16.885000048205256,16.76999987103045,16.270000021904707,16.78499998524785,16.59999997355044,16.754999989643693,16.820000018924475,16.485000029206276,16.969999996945262,16.37500012293458,16.5049999486655,16.749999951571226,16.715000150725245,17.054999945685267,16.134999925270677,16.850000014528632,16.844999976456165,16.49500010535121,16.730000032112002,16.605000011622906,16.779999947175384,16.5049999486655,16.82500005699694,16.54500002041459,16.824999824166298,16.475000185891986,16.86499989591539,16.580000054091215,16.419999999925494,16.899999929592013,16.539999982342124,16.795000061392784,16.749999951571226,16.550000058487058,16.64000004529953,16.71999995596707,16.659999964758754,16.589999897405505,16.76000002771616,16.73500007018447,16.525000100955367,16.635000007227063,16.850000014528632,16.559999901801348,16.62499993108213,17.114999936893582,16.310000093653798,16.460000071674585,17.770000034943223,15.684999991208315,16.71999995596707,16.670000040903687,16.730000032112002,16.4899998344481,16.810000175610185,16.669999808073044,16.700000036507845,16.64000004529953,16.645000083371997,16.519999830052257,16.8700001668185,16.589999897405505,16.594999935477972,16.754999989643693,16.685000155121088,16.559999901801348,16.814999980852008,16.65500015951693,16.62499993108213,16.559999901801348,16.694999998435378,16.71999995596707,16.540000215172768,16.614999854937196,16.73500007018447,16.765000065788627,16.594999935477972,16.68999996036291,16.619999893009663,16.63000020198524,16.814999980852008,16.694999998435378,16.534999944269657,16.804999904707074,16.675000078976154,16.59999997355044,16.564999939873815,16.835000133141875,16.610000049695373,16.59999997355044,16.814999980852008,16.64999988861382,16.515000024810433,16.865000128746033,16.58499985933304,16.59000013023615,16.739999875426292]","209","552.5","343","false","20","20","black","1","false","1","1","1105","686","rdk","142","434585","0.0-10.0-2.0-1.6","","mmlk0s","dsf","er","X","46","937.3149999883026","accuracy","{""name"":""Chrome"",""chrome"":true,""version"":""80.0"",""blink"":true,""windows"":true,""osname"":""Windows"",""osversion"":""10"",""a"":true}","accuracy","left","0.2","rdk","7","1","experimental","1536 x 864","1105 x 686","true","1513.1900000851601"
"597.7100001182407","69","false","e,t","t","5000","true","1","50","1","0","0.2","0","2","5","1.7","274.4","274.4","white","black","5","1","1","17.119705882471273","[32.21000009216368,17.059999983757734,16.365000046789646,16.279999865218997,16.670000040903687,16.66500000283122,16.80999994277954,16.47999999113381,17.140000127255917,16.214999835938215,17.020000144839287,16.509999986737967,16.52999990619719,16.90499996766448,16.44500019028783,16.664999770000577,16.670000040903687,16.64000004529953,16.59000013023615,16.799999866634607,16.675000078976154,16.580000054091215,16.714999917894602,16.61500008776784,16.72999979928136,16.54500002041459,16.964999958872795,17.0800001360476,16.254999907687306,16.71999995596707,16.47000014781952,16.820000018924475,16.739999875426292,16.490000067278743]","34","552.5","343","false","20","20","black","1","false","1","1","1105","686","rdk","145","437535","0.0-10.0-2.0-1.7","","mmlk0s","dsf","er","X","48","843.6849999707192","accuracy","{""name"":""Chrome"",""chrome"":true,""version"":""80.0"",""blink"":true,""windows"":true,""osname"":""Windows"",""osversion"":""10"",""a"":true}","accuracy","right","0.2","rdk","8","1","experimental","1536 x 864","1105 x 686","true","1380.5100000463426"
"331.70500001870096","69","true","e,t","e","5000","true","1","50","1","180","0.2","0","2","5","1.7","274.4","274.4","white","black","5","1","1","16.0814999951981","[5.369999911636114,16.340000089257956,17.4000000115484,15.859999926760793,16.749999951571226,16.530000139027834,16.71999995596707,16.644999850541353,16.57500001601875,16.730000032112002,16.700000036507845,16.635000007227063,16.765000065788627,16.539999982342124,16.74499991349876,16.530000139027834,16.894999891519547,17.010000068694353,16.134999925270677,16.754999989643693]","20","552.5","343","false","20","20","black","1","false","1","1","1105","686","rdk","148","439913","0.0-10.0-2.0-1.8","","mmlk0s","dsf","er","X","50","755.2199999336153","accuracy","{""name"":""Chrome"",""chrome"":true,""version"":""80.0"",""blink"":true,""windows"":true,""osname"":""Windows"",""osversion"":""10"",""a"":true}","accuracy","left","0.2","rdk","9","1","experimental","1536 x 864","1105 x 686","true","1587.379999924451"
"346.3800000026822","69","true","e,t","e","5000","true","1","50","1","180","0.2","0","2","5","1.7","274.4","274.4","white","black","5","1","1","15.988809522241354","[2.2700000554323196,16.94500003941357,16.404999885708094,16.865000128746033,16.659999964758754,16.44999999552965,16.779999947175384,16.629999969154596,16.770000103861094,16.635000007227063,16.66500000283122,16.670000040903687,16.564999939873815,16.804999904707074,16.585000092163682,16.730000032112002,16.66500000283122,16.64999988861382,16.76000002771616,16.619999893009663,16.64000004529953]","21","552.5","343","false","20","20","black","1","false","1","1","1105","686","rdk","151","442697","0.0-10.0-2.0-1.9","","mmlk0s","dsf","er","X","50","682.0699998643249","accuracy","{""name"":""Chrome"",""chrome"":true,""version"":""80.0"",""blink"":true,""windows"":true,""osname"":""Windows"",""osversion"":""10"",""a"":true}","accuracy","left","0.2","rdk","10","1","experimental","1536 x 864","1105 x 686","true","1337.9149998072535"
"381.9599999114871","69","false","e,t","t","5000","true","1","50","1","0","0.2","0","2","5","1.7","274.4","274.4","white","black","5","1","1","16.33782608879973","[9.145000018179417,16.859999857842922,16.715000150725245,16.594999935477972,16.534999944269657,16.78499998524785,16.45500003360212,16.675000078976154,16.45999983884394,17.075000097975135,16.66500000283122,16.56999997794628,16.59000013023615,16.614999854937196,16.694999998435378,16.92000008188188,16.610000049695373,16.47999999113381,16.57500001601875,16.739999875426292,16.68000011704862,16.57500001601875,16.754999989643693]","23","552.5","343","false","20","20","black","1","false","1","1","1105","686","rdk","154","445225","0.0-10.0-2.0-1.10","","mmlk0s","dsf","er","X","56","1264.9399999063462","accuracy","{""name"":""Chrome"",""chrome"":true,""version"":""80.0"",""blink"":true,""windows"":true,""osname"":""Windows"",""osversion"":""10"",""a"":true}","accuracy","right","0.2","rdk","11","1","experimental","1536 x 864","1105 x 686","true","1713.5649998672307"
"438.97999986074865","69","true","e,t","e","5000","true","1","50","1","180","0.2","0","2","5","1.7","274.4","274.4","white","black","5","1","1","16.33653846175338","[8.314999984577298,16.594999935477972,16.580000054091215,16.64999988861382,16.715000150725245,16.395000042393804,16.824999824166298,16.690000193193555,16.6999998036772,16.65500015951693,16.589999897405505,16.874999972060323,17.0650000218302,16.444999957457185,16.465000109747052,16.460000071674585,16.74499991349876,16.814999980852008,16.64000004529953,16.515000024810433,16.67499984614551,17.140000127255917,16.134999925270677,16.745000146329403,16.639999812468886,16.68000011704862]","26","552.5","343","false","20","20","black","1","false","1","1","1105","686","rdk","157","448184","0.0-10.0-2.0-1.11","","mmlk0s","dsf","er","X","37","532.5600001960993","accuracy","{""name"":""Chrome"",""chrome"":true,""version"":""80.0"",""blink"":true,""windows"":true,""osname"":""Windows"",""osversion"":""10"",""a"":true}","accuracy","left","0.2","rdk","12","1","experimental","1536 x 864","1105 x 686","true","940.3250000905246"
"755.464999936521","69","false","e,t","t","5000","true","1","50","1","0","0.2","0","2","5","1.7","274.4","274.4","white","black","5","1","1","16.533999998743337","[10.280000045895576,16.34499989449978,17.059999983757734,16.405000118538737,16.759999794885516,16.780000180006027,16.56999997794628,16.66500000283122,16.799999866634607,16.37500012293458,16.92999992519617,16.379999928176403,16.885000048205256,16.580000054091215,17.244999995455146,16.40000008046627,16.539999982342124,16.605000011622906,16.67499984614551,16.47999999113381,16.70500007458031,16.754999989643693,16.605000011622906,16.605000011622906,16.885000048205256,16.365000046789646,16.734999837353826,17.115000169724226,16.669999808073044,16.234999988228083,16.625000163912773,16.779999947175384,16.515000024810433,16.739999875426292,16.605000011622906,16.610000049695373,17.220000037923455,16.174999997019768,16.740000108256936,16.704999841749668,16.5049999486655,16.795000061392784,17.054999945685267,16.539999982342124,16.985000111162663]","45","552.5","343","false","20","20","black","1","false","1","1","1105","686","rdk","163","452798","0.0-10.1-2.1-1.12","","mmlk0s","dsf","er","X","53","567.005000077188","accuracy","{""name"":""Chrome"",""chrome"":true,""version"":""80.0"",""blink"":true,""windows"":true,""osname"":""Windows"",""osversion"":""10"",""a"":true}","speed","right","0.2","rdk","1","2","experimental","1536 x 864","1105 x 686","true","1104.0050000883639"
"493.9800000283867","69","false","e,t","t","5000","true","1","50","1","0","0.2","0","2","5","1.7","274.4","274.4","white","black","5","1","1","16.363000000516575","[8.060000138357282,16.254999907687306,16.74499991349876,17.32000010088086,16.139999963343143,16.76000002771616,16.060000052675605,16.83499990031123,16.89500012435019,16.619999893009663,16.419999999925494,16.700000036507845,16.989999916404486,16.850000014528632,16.294999979436398,17.02499995008111,16.235000221058726,16.979999840259552,16.44000015221536,16.494999872520566,16.59999997355044,16.68000011704862,16.684999922290444,16.629999969154596,16.950000077486038,16.534999944269657,16.83000009506941,16.670000040903687,16.56999997794628,16.619999893009663]","30","552.5","343","false","20","20","black","1","false","1","1","1105","686","rdk","166","455189","0.0-10.1-2.1-1.13","","mmlk0s","dsf","er","X","50","535.6499999761581","accuracy","{""name"":""Chrome"",""chrome"":true,""version"":""80.0"",""blink"":true,""windows"":true,""osname"":""Windows"",""osversion"":""10"",""a"":true}","speed","right","0.2","rdk","2","2","experimental","1536 x 864","1105 x 686","true","991.5549999568611"
"239.0050000976771","69","false","e,t","t","5000","true","1","50","1","0","0.2","0","2","5","1.7","274.4","274.4","white","black","5","1","1","16.847142866546555","[19.040000159293413,16.91499981097877,16.270000021904707,16.47999999113381,17.35000009648502,16.06500009074807,16.605000011622906,16.98499987833202,16.340000089257956,16.68999996036291,17.155000008642673,16.559999901801348,16.500000143423676,16.90499996766448]","14","552.5","343","false","20","20","black","1","false","1","1","1105","686","rdk","169","457172","0.0-10.1-2.1-1.14","","mmlk0s","dsf","er","X","48","504.7049999702722","accuracy","{""name"":""Chrome"",""chrome"":true,""version"":""80.0"",""blink"":true,""windows"":true,""osname"":""Windows"",""osversion"":""10"",""a"":true}","speed","right","0.2","rdk","3","2","experimental","1536 x 864","1105 x 686","true","960.9699998982251"
"384.2350000049919","69","false","e,t","t","5000","true","1","50","1","0","0.2","0","2","5","1.7","274.4","274.4","white","black","5","1","1","16.561304340543956","[14.244999969378114,17.00999983586371,16.435000114142895,16.80000009946525,16.494999872520566,16.790000023320317,16.64000004529953,16.31499989889562,17.050000140443444,16.68999996036291,16.55499986372888,16.715000150725245,16.66500000283122,16.57500001601875,16.799999866634607,16.635000007227063,16.585000092163682,16.774999909102917,16.68000011704862,16.54500002041459,16.714999917894602,16.5049999486655,16.68999996036291]","23","552.5","343","false","20","20","black","1","false","1","1","1105","686","rdk","172","459423","0.0-10.1-2.1-1.15","","mmlk0s","dsf","er","X","88","750.8549999911338","accuracy","{""name"":""Chrome"",""chrome"":true,""version"":""80.0"",""blink"":true,""windows"":true,""osname"":""Windows"",""osversion"":""10"",""a"":true}","speed","right","0.2","rdk","4","2","experimental","1536 x 864","1105 x 686","true","1229.7199999447912"
"228.3049998804927","69","true","e,t","e","5000","true","1","50","1","180","0.2","0","2","5","1.7","274.4","274.4","white","black","5","1","1","16.68769230421346","[17.87000009790063,16.279999865218997,16.234999988228083,16.700000036507845,16.754999989643693,16.47000014781952,16.594999935477972,16.770000103861094,16.57500001601875,16.664999770000577,16.675000078976154,16.59999997355044,16.749999951571226]","13","552.5","343","false","20","20","black","1","false","1","1","1105","686","rdk","175","461630","0.0-10.1-2.1-1.16","","mmlk0s","dsf","er","X","13","846.7050001490861","accuracy","{""name"":""Chrome"",""chrome"":true,""version"":""80.0"",""blink"":true,""windows"":true,""osname"":""Windows"",""osversion"":""10"",""a"":true}","speed","left","0.2","rdk","5","2","experimental","1536 x 864","1105 x 686","true","1503.9300001226366"
"441.12999993376434","69","false","e,t","t","5000","true","1","50","1","0","0.2","0","2","5","1.7","274.4","274.4","white","black","5","1","1","16.452115387297592","[11.590000009164214,16.270000021904707,16.70500007458031,16.684999922290444,16.57500001601875,16.670000040903687,16.45999983884394,16.730000032112002,16.610000049695373,16.550000058487058,16.989999916404486,16.490000067278743,16.62499993108213,16.534999944269657,16.955000115558505,16.490000067278743,16.68999996036291,16.594999935477972,16.765000065788627,16.704999841749668,16.93500019609928,16.519999830052257,16.475000185891986,16.639999812468886,16.690000193193555,16.80999994277954]","26","552.5","343","false","20","20","black","1","false","1","1","1105","686","rdk","178","464516","0.0-10.1-2.1-1.17","","mmlk0s","dsf","er","X","54","505.2350000478327","accuracy","{""name"":""Chrome"",""chrome"":true,""version"":""80.0"",""blink"":true,""windows"":true,""osname"":""Windows"",""osversion"":""10"",""a"":true}","speed","right","0.2","rdk","6","2","experimental","1536 x 864","1105 x 686","true","975.9550001472235"
"245.2350000385195","69","true","e,t","e","5000","true","1","50","1","180","0.2","0","2","5","1.7","274.4","274.4","white","black","5","1","1","15.862999996170402","[4.840000066906214,16.765000065788627,16.47999999113381,16.654999926686287,16.619999893009663,16.620000125840306,16.62499993108213,16.610000049695373,16.610000049695373,16.749999951571226,16.684999922290444,16.645000083371997,16.74499991349876,16.595000168308616,16.6999998036772]","15","552.5","343","false","20","20","black","1","false","1","1","1105","686","rdk","181","466543","0.0-10.1-2.1-1.18","","mmlk0s","dsf","er","X","63","990.0750000961125","accuracy","{""name"":""Chrome"",""chrome"":true,""version"":""80.0"",""blink"":true,""windows"":true,""osname"":""Windows"",""osversion"":""10"",""a"":true}","speed","left","0.2","rdk","7","2","experimental","1536 x 864","1105 x 686","true","1422.5500000175089"
"453.38000007905066","69","false","e,t","t","5000","true","1","50","1","0","0.2","0","2","5","1.7","274.4","274.4","white","black","5","1","1","16.31740740224443","[7.354999892413616,16.700000036507845,16.82500005699694,16.580000054091215,16.654999926686287,16.499999910593033,16.8550000526011,16.635000007227063,16.379999928176403,16.805000137537718,16.8399999383837,16.525000100955367,16.58499985933304,17.05500017851591,16.36999985203147,16.594999935477972,16.675000078976154,16.585000092163682,16.659999964758754,16.754999989643693,16.83499990031123,16.5350001771003,16.57500001601875,16.664999770000577,16.70500007458031,16.645000083371997,16.67499984614551]","27","552.5","343","false","20","20","black","1","false","1","1","1105","686","rdk","184","469449","0.0-10.1-2.1-1.19","","mmlk0s","dsf","er","X","36","446.11000013537705","accuracy","{""name"":""Chrome"",""chrome"":true,""version"":""80.0"",""blink"":true,""windows"":true,""osname"":""Windows"",""osversion"":""10"",""a"":true}","speed","right","0.2","rdk","8","2","experimental","1536 x 864","1105 x 686","true","885.065000038594"
"435.58500008657575","69","true","e,t","e","5000","true","1","50","1","180","0.2","0","2","5","1.7","274.4","274.4","white","black","5","1","1","16.141730763662892","[2.9499998781830072,16.754999989643693,16.850000014528632,16.625000163912773,16.57999982126057,16.715000150725245,16.62499993108213,16.499999910593033,16.810000175610185,16.549999825656414,16.690000193193555,16.749999951571226,16.629999969154596,16.474999953061342,17.070000059902668,16.460000071674585,16.58499985933304,16.654999926686287,16.625000163912773,16.730000032112002,16.519999830052257,16.8550000526011,16.700000036507845,16.654999926686287,16.75000018440187,16.574999783188105]","26","552.5","343","false","20","20","black","1","false","1","1","1105","686","rdk","187","471852","0.0-10.1-2.1-1.20","","mmlk0s","dsf","er","X","58","562.6300000585616","accuracy","{""name"":""Chrome"",""chrome"":true,""version"":""80.0"",""blink"":true,""windows"":true,""osname"":""Windows"",""osversion"":""10"",""a"":true}","speed","left","0.2","rdk","9","2","experimental","1536 x 864","1105 x 686","true","1283.7500001769513"
"606.0200000647455","69","true","e,t","e","5000","true","1","50","1","180","0.2","0","2","5","1.7","274.4","274.4","white","black","5","1","1","16.573055556768345","[13.370000058785081,17.65500009059906,15.780000016093254,16.754999989643693,16.739999875426292,16.605000011622906,16.419999999925494,16.66500000283122,16.844999976456165,16.370000084862113,16.749999951571226,17.045000102370977,16.330000013113022,16.749999951571226,16.55499986372888,16.730000032112002,16.675000078976154,16.635000007227063,16.654999926686287,16.68000011704862,16.83499990031123,16.66500000283122,16.874999972060323,16.65500015951693,16.324999975040555,16.76999987103045,16.59000013023615,16.700000036507845,16.614999854937196,16.700000036507845,17.019999912008643,16.509999986737967,16.515000024810433,16.61500008776784,16.679999884217978,16.550000058487058]","36","552.5","343","false","20","20","black","1","false","1","1","1105","686","rdk","190","474745","0.0-10.1-2.1-1.21","","mmlk0s","dsf","er","X","50","645.8700001239777","accuracy","{""name"":""Chrome"",""chrome"":true,""version"":""80.0"",""blink"":true,""windows"":true,""osname"":""Windows"",""osversion"":""10"",""a"":true}","speed","left","0.2","rdk","10","2","experimental","1536 x 864","1105 x 686","true","1173.9099998958409"
"339.8400000296533","69","true","e,t","e","5000","true","1","50","1","180","0.2","0","2","5","1.7","274.4","274.4","white","black","5","1","1","16.09547619175698","[5.254999967291951,16.130000120028853,16.700000036507845,16.730000032112002,17.839999869465828,15.850000083446503,15.929999994114041,16.850000014528632,16.60999981686473,17.120000207796693,16.19999995455146,16.679999884217978,16.629999969154596,16.70500007458031,16.730000032112002,16.68999996036291,16.62499993108213,16.610000049695373,16.59999997355044,16.71000011265278,16.80999994277954]","21","552.5","343","false","20","20","black","1","false","1","1","1105","686","rdk","193","477105","0.0-10.1-2.1-1.22","","mmlk0s","dsf","er","X","48","373.4750000294298","accuracy","{""name"":""Chrome"",""chrome"":true,""version"":""80.0"",""blink"":true,""windows"":true,""osname"":""Windows"",""osversion"":""10"",""a"":true}","speed","left","0.2","rdk","11","2","experimental","1536 x 864","1105 x 686","true","821.3300001807511"
"499.7650000732392","69","true","e,t","e","5000","true","1","50","1","180","0.2","0","2","5","1.7","274.4","274.4","white","black","5","1","1","16.4258333388716","[9.384999983012676,16.805000137537718,16.670000040903687,16.43499988131225,16.83000009506941,16.524999868124723,16.68000011704862,16.539999982342124,16.80000009946525,16.68999996036291,17.079999903216958,17.029999988153577,16.594999935477972,16.09500008635223,16.57500001601875,16.724999994039536,16.439999919384718,17.020000144839287,16.515000024810433,16.619999893009663,16.54500002041459,16.564999939873815,16.715000150725245,16.66500000283122,16.974999802187085,16.555000096559525,16.74499991349876,16.685000155121088,16.619999893009663,16.650000121444464]","30","552.5","343","false","20","20","black","1","false","1","1","1105","686","rdk","196","479510","0.0-10.1-2.1-1.23","","mmlk0s","dsf","er","X","50","503.4099998883903","accuracy","{""name"":""Chrome"",""chrome"":true,""version"":""80.0"",""blink"":true,""windows"":true,""osname"":""Windows"",""osversion"":""10"",""a"":true}","speed","left","0.2","rdk","12","2","experimental","1536 x 864","1105 x 686","true","1097.3349998239428"
