"rt","key_press","correct","choices","correct_choice","trial_duration","response_ends_trial","number_of_apertures","number_of_dots","number_of_sets","coherent_direction","coherence","opposite_coherence","dot_radius","dot_life","move_distance","aperture_width","aperture_height","dot_color","background_color","RDK_type","aperture_type","reinsert_type","frame_rate","frame_rate_array","number_of_frames","aperture_center_x","aperture_center_y","fixation_cross","fixation_cross_width","fixation_cross_height","fixation_cross_color","fixation_cross_thickness","border","border_thickness","border_color","canvas_width","canvas_height","trial_type","trial_index","time_elapsed","internal_node_id","sona_ID","random_ID","initials","age","gender","resp_confidence","rt_confidence","confidence_CB","sat_CB","pc_info","condition","direction","coherence_level","event","trial","block","phase","screen_resolution","window_resolution","focus"
"-1","-1","false","e,t","t","5000","true","1","50","1","0","0.5","0","2","5","1.7","274.4","274.4","white","black","5","1","1","16.652116666082293","[12.164999963715672,16.659999964758754,16.97500003501773,16.27499982714653,16.570000210776925,16.799999866634607,16.550000058487058,16.700000036507845,16.619999893009663,16.675000078976154,16.885000048205256,16.5049999486655,16.605000011622906,16.589999897405505,16.97500003501773,16.49500010535121,16.57500001601875,16.704999841749668,16.805000137537718,16.56999997794628,16.724999994039536,16.979999840259552,16.56500017270446,16.319999936968088,16.66500000283122,16.635000007227063,16.724999994039536,16.654999926686287,16.694999998435378,16.70500007458031,16.684999922290444,16.754999989643693,16.660000197589397,16.95499988272786,16.610000049695373,16.279999865218997,16.635000007227063,16.675000078976154,16.844999976456165,16.550000058487058,16.76000002771616,16.56999997794628,16.67499984614551,16.620000125840306,18.385000061243773,16.174999997019768,15.269999857991934,16.650000121444464,16.724999994039536,16.71999995596707,17.260000109672546,15.799999935552478,17.87999994121492,16.00999990478158,16.5350001771003,16.444999957457185,16.76999987103045,16.505000181496143,16.57999982126057,16.875000204890966,17.384999897331,16.390000004321337,16.270000021904707,16.730000032112002,16.559999901801348,16.675000078976154,16.765000065788627,17.039999831467867,16.54500002041459,16.300000017508864,16.564999939873815,17.4000000115484,16.54500002041459,16.130000120028853,16.589999897405505,16.795000061392784,16.645000083371997,16.824999824166298,16.620000125840306,16.47999999113381,16.90499996766448,16.709999879822135,16.724999994039536,17.03000022098422,15.929999994114041,16.789999790489674,16.605000011622906,16.595000168308616,16.874999972060323,16.494999872520566,16.73500007018447,16.749999951571226,16.605000011622906,16.555000096559525,16.76000002771616,16.659999964758754,16.654999926686287,17.125000013038516,16.460000071674585,16.550000058487058,16.46499987691641,16.56999997794628,17.20000011846423,16.28999994136393,16.64999988861382,16.8550000526011,16.80000009946525,16.34499989449978,16.56999997794628,16.930000158026814,16.694999998435378,16.924999887123704,16.694999998435378,16.19999995455146,16.900000162422657,16.474999953061342,16.754999989643693,16.429999843239784,17.130000051110983,16.5049999486655,16.660000197589397,16.364999813959002,16.885000048205256,16.635000007227063,16.88000001013279,16.349999932572246,16.83000009506941,16.899999929592013,16.44999999552965,16.635000007227063,16.78499998524785,16.610000049695373,16.620000125840306,16.6999998036772,16.5200000628829,16.790000023320317,16.585000092163682,16.739999875426292,16.550000058487058,16.76000002771616,16.68999996036291,17.204999923706055,16.290000174194574,16.244999831542373,17.18500000424683,16.435000114142895,16.614999854937196,16.610000049695373,16.700000036507845,16.564999939873815,16.650000121444464,16.610000049695373,16.709999879822135,16.8550000526011,16.5200000628829,16.644999850541353,16.59999997355044,16.78499998524785,16.650000121444464,16.924999887123704,16.275000059977174,16.670000040903687,17.019999912008643,16.435000114142895,16.724999994039536,16.700000036507845,16.790000023320317,16.60999981686473,16.490000067278743,17.02499995008111,16.365000046789646,16.54500002041459,16.92000008188188,16.419999999925494,16.910000005736947,16.56999997794628,16.515000024810433,17.0499999076128,16.44999999552965,16.57500001601875,16.585000092163682,16.899999929592013,16.54500002041459,16.629999969154596,17.054999945685267,16.430000076070428,16.379999928176403,16.969999996945262,16.68999996036291,16.56999997794628,16.56500017270446,16.659999964758754,16.635000007227063,16.654999926686287,16.68000011704862,16.64999988861382,17.050000140443444,16.219999874010682,16.740000108256936,16.639999812468886,16.690000193193555,16.944999806582928,16.47999999113381,16.610000049695373,16.670000040903687,16.620000125840306,16.62499993108213,17.16999989002943,16.294999979436398,16.625000163912773,16.58499985933304,16.740000108256936,16.635000007227063,16.66500000283122,16.86499989591539,16.525000100955367,16.724999994039536,16.71999995596707,16.694999998435378,16.460000071674585,17.005000030621886,16.754999989643693,16.390000004321337,17.064999788999557,16.17500022985041,16.84999978169799,16.515000024810433,16.700000036507845,17.084999941289425,16.150000039488077,16.659999964758754,16.650000121444464,16.71999995596707,16.57500001601875,16.804999904707074,16.56500017270446,16.734999837353826,16.610000049695373,16.675000078976154,16.86499989591539,16.390000004321337,16.80000009946525,16.619999893009663,16.715000150725245,17.12999981828034,16.320000169798732,16.52999990619719,16.92000008188188,16.429999843239784,16.82500005699694,16.474999953061342,16.63000020198524,16.83499990031123,16.71999995596707,16.56999997794628,16.730000032112002,16.605000011622906,16.795000061392784,16.83499990031123,16.319999936968088,16.570000210776925,16.734999837353826,16.865000128746033,16.519999830052257,16.63000020198524,16.594999935477972,16.83499990031123,16.659999964758754,16.645000083371997,16.754999989643693,16.525000100955367,16.64999988861382,16.61500008776784,16.71999995596707,16.57500001601875,16.765000065788627,16.6999998036772,16.64000004529953,16.65500015951693,16.789999790489674,16.585000092163682,16.539999982342124,16.765000065788627,16.659999964758754,16.594999935477972,16.66500000283122,16.724999994039536,16.595000168308616,16.724999994039536,16.67499984614551,16.675000078976154,16.66500000283122,16.654999926686287,16.59000013023615,16.924999887123704,16.49500010535121,16.71999995596707,16.709999879822135,16.530000139027834,17.16999989002943]","300","698","343","false","20","20","black","1","false","1","1","1396","686","rdk","6","228328","0.0-4.0-1.0-1.0","","dqgtcj","sdff","","","-1","-1","right","accuracy","{""name"":""Chrome"",""chrome"":true,""version"":""80.0"",""blink"":true,""windows"":true,""osname"":""Windows"",""osversion"":""10"",""a"":true}","","right","0.5","rdk","1","1","training_1","1536 x 864","1396 x 686","false"
"4292.039999971166","69","false","e,t","t","5000","true","1","50","1","0","0.5","0","2","5","1.7","274.4","274.4","white","black","5","1","1","16.615213178343666","[3.535000141710043,16.54500002041459,16.739999875426292,17.20000011846423,16.03499986231327,16.754999989643693,16.730000032112002,16.45500003360212,16.684999922290444,16.865000128746033,16.499999910593033,16.850000014528632,16.56000013463199,16.56999997794628,16.62499993108213,17.13500008918345,16.324999975040555,16.52999990619719,17.005000030621886,16.659999964758754,16.390000004321337,16.74499991349876,16.65500015951693,16.629999969154596,16.679999884217978,16.66500000283122,16.61500008776784,16.645000083371997,16.754999989643693,16.60999981686473,16.80000009946525,16.52999990619719,16.670000040903687,16.64000004529953,16.694999998435378,16.654999926686287,16.685000155121088,16.76000002771616,16.59999997355044,16.76000002771616,17.084999941289425,17.155000008642673,16.10499992966652,17.019999912008643,15.980000142008066,16.439999919384718,16.814999980852008,16.595000168308616,16.684999922290444,16.675000078976154,16.62499993108213,16.739999875426292,16.694999998435378,16.600000206381083,16.644999850541353,16.670000040903687,16.934999963268638,16.5200000628829,16.614999854937196,16.64000004529953,16.57500001601875,16.779999947175384,16.940000001341105,16.585000092163682,16.645000083371997,16.549999825656414,16.485000029206276,16.670000040903687,16.659999964758754,17.059999983757734,16.64000004529953,16.68999996036291,16.37500012293458,16.684999922290444,16.500000143423676,16.67499984614551,16.650000121444464,16.629999969154596,16.444999957457185,17.0650000218302,16.57500001601875,16.654999926686287,16.59999997355044,16.765000065788627,16.754999989643693,16.45500003360212,16.684999922290444,16.670000040903687,16.659999964758754,16.73500007018447,16.850000014528632,16.559999901801348,16.71000011265278,16.700000036507845,16.474999953061342,16.989999916404486,16.564999939873815,16.509999986737967,16.59000013023615,16.874999972060323,16.539999982342124,16.865000128746033,16.59999997355044,16.64999988861382,16.71000011265278,16.5049999486655,16.55499986372888,16.670000040903687,16.71999995596707,16.625000163912773,16.71999995596707,16.605000011622906,16.670000040903687,16.64000004529953,16.694999998435378,16.739999875426292,16.64000004529953,16.679999884217978,16.805000137537718,16.659999964758754,16.71999995596707,16.564999939873815,16.620000125840306,16.709999879822135,16.56000013463199,16.629999969154596,16.684999922290444,16.77500014193356,16.55499986372888,16.885000048205256,16.555000096559525,16.619999893009663,16.78499998524785,16.530000139027834,16.714999917894602,16.564999939873815,16.77500014193356,16.6999998036772,17.180000199005008,16.374999890103936,16.404999885708094,16.690000193193555,16.68999996036291,16.749999951571226,16.395000042393804,16.820000018924475,16.724999994039536,16.5049999486655,16.700000036507845,16.629999969154596,16.61500008776784,16.704999841749668,16.780000180006027,16.58499985933304,16.684999922290444,16.70500007458031,16.68999996036291,16.650000121444464,16.605000011622906,16.80999994277954,16.559999901801348,16.63000020198524,16.78499998524785,16.58499985933304,16.61500008776784,16.70500007458031,16.669999808073044,16.555000096559525,16.90499996766448,16.585000092163682,16.559999901801348,16.700000036507845,16.605000011622906,16.684999922290444,16.934999963268638,16.500000143423676,16.619999893009663,16.765000065788627,16.679999884217978,16.56000013463199,16.614999854937196,16.68000011704862,16.765000065788627,16.62499993108213,17.68999989144504,15.805000206455588,16.564999939873815,16.54500002041459,16.885000048205256,16.67499984614551,16.460000071674585,16.804999904707074,16.955000115558505,16.24000002630055,16.670000040903687,16.79499982856214,16.515000024810433,16.850000014528632,16.68999996036291,16.54500002041459,16.654999926686287,17.740000039339066,15.894999960437417,16.320000169798732,16.8399999383837,16.42500003799796,17.220000037923455,16.124999849125743,16.675000078976154,16.684999922290444,16.814999980852008,16.500000143423676,16.78499998524785,16.700000036507845,16.724999994039536,16.614999854937196,16.465000109747052,16.885000048205256,16.644999850541353,16.595000168308616,16.64999988861382,16.64000004529953,16.659999964758754,16.594999935477972,16.730000032112002,16.68999996036291,16.610000049695373,16.730000032112002,16.76000002771616,16.64999988861382,16.595000168308616,16.814999980852008,16.8399999383837,16.40000008046627,16.74499991349876,16.62499993108213,16.59000013023615,16.709999879822135,16.56999997794628,16.720000188797712,16.56999997794628,16.910000005736947,16.549999825656414,16.61500008776784,16.66500000283122,16.765000065788627,16.639999812468886,16.72500022687018,16.694999998435378,16.57999982126057,16.71000011265278,16.62499993108213,16.56999997794628,16.8550000526011,16.499999910593033,16.71000011265278,16.619999893009663,16.850000014528632]","258","698","343","false","20","20","black","1","false","1","1","1396","686","rdk","9","234627","0.0-4.0-1.0-1.1","","dqgtcj","sdff","","","-1","-1","right","accuracy","{""name"":""Chrome"",""chrome"":true,""version"":""80.0"",""blink"":true,""windows"":true,""osname"":""Windows"",""osversion"":""10"",""a"":true}","","right","0.5","rdk","2","1","training_1","1536 x 864","1396 x 686","true"
"148.49000005051494","69","false","e,t","t","5000","true","1","50","1","0","0.5","0","2","5","1.7","274.4","274.4","white","black","5","1","1","16.568749997531995","[15.844999812543392,16.670000040903687,16.635000007227063,16.82500005699694,16.605000011622906,16.68999996036291,16.74499991349876,16.5350001771003]","8","698","343","false","20","20","black","1","false","1","1","1396","686","rdk","12","235721","0.0-4.0-1.0-1.2","","dqgtcj","sdff","","","-1","-1","right","accuracy","{""name"":""Chrome"",""chrome"":true,""version"":""80.0"",""blink"":true,""windows"":true,""osname"":""Windows"",""osversion"":""10"",""a"":true}","","right","0.5","rdk","3","1","training_1","1536 x 864","1396 x 686","true"
"152.09500002674758","84","false","e,t","e","5000","true","1","50","1","180","0.5","0","2","5","1.7","274.4","274.4","white","black","5","1","1","16.385555551904773","[14.135000063106418,16.644999850541353,16.44999999552965,16.890000086277723,16.700000036507845,16.61500008776784,16.539999982342124,16.654999926686287,16.8399999383837]","9","698","343","false","20","20","black","1","false","1","1","1396","686","rdk","15","236543","0.0-4.0-1.0-1.3","","dqgtcj","sdff","","","-1","-1","right","accuracy","{""name"":""Chrome"",""chrome"":true,""version"":""80.0"",""blink"":true,""windows"":true,""osname"":""Windows"",""osversion"":""10"",""a"":true}","","left","0.5","rdk","4","1","training_1","1536 x 864","1396 x 686","true"
"173.35999989882112","69","false","e,t","t","5000","true","1","50","1","0","0.5","0","2","5","1.7","274.4","274.4","white","black","5","1","1","15.743500017561018","[7.310000015422702,16.685000155121088,16.509999986737967,16.74499991349876,17.310000024735928,16.07499993406236,16.68999996036291,16.724999994039536,16.570000210776925,16.814999980852008]","10","698","343","false","20","20","black","1","false","1","1","1396","686","rdk","18","237388","0.0-4.0-1.0-1.4","","dqgtcj","sdff","","","-1","-1","right","accuracy","{""name"":""Chrome"",""chrome"":true,""version"":""80.0"",""blink"":true,""windows"":true,""osname"":""Windows"",""osversion"":""10"",""a"":true}","","right","0.5","rdk","5","1","training_1","1536 x 864","1396 x 686","true"
"182.06000002101064","69","true","e,t","e","5000","true","1","50","1","180","0.5","0","2","5","1.7","274.4","274.4","white","black","5","1","1","16.002727270295676","[9.305000072345138,16.589999897405505,16.835000133141875,16.614999854937196,16.625000163912773,16.614999854937196,16.650000121444464,16.52999990619719,16.82500005699694,16.774999909102917,16.66500000283122]","11","698","343","false","20","20","black","1","false","1","1","1396","686","rdk","21","238328","0.0-4.0-1.0-1.5","","dqgtcj","sdff","","","-1","-1","right","accuracy","{""name"":""Chrome"",""chrome"":true,""version"":""80.0"",""blink"":true,""windows"":true,""osname"":""Windows"",""osversion"":""10"",""a"":true}","","left","0.5","rdk","6","1","training_1","1536 x 864","1396 x 686","true"
"169.7050000075251","69","false","e,t","t","5000","true","1","50","1","0","0.5","0","2","5","1.7","274.4","274.4","white","black","5","1","1","16.446999995969236","[14.539999887347221,16.63000020198524,16.684999922290444,16.679999884217978,16.515000024810433,16.860000090673566,16.56999997794628,16.83499990031123,16.600000206381083,16.55499986372888]","10","698","343","false","20","20","black","1","false","1","1","1396","686","rdk","24","239227","0.0-4.0-1.0-1.6","","dqgtcj","sdff","","","-1","-1","right","accuracy","{""name"":""Chrome"",""chrome"":true,""version"":""80.0"",""blink"":true,""windows"":true,""osname"":""Windows"",""osversion"":""10"",""a"":true}","","right","0.5","rdk","7","1","training_1","1536 x 864","1396 x 686","true"
"183.21499996818602","69","true","e,t","e","5000","true","1","50","1","180","0.5","0","2","5","1.7","274.4","274.4","white","black","5","1","1","16.115000005811453","[10.789999971166253,16.71000011265278,16.670000040903687,16.67499984614551,16.645000083371997,16.71999995596707,16.499999910593033,16.765000065788627,16.515000024810433,16.684999922290444,16.59000013023615]","11","698","343","false","20","20","black","1","false","1","1","1396","686","rdk","27","240128","0.0-4.0-1.0-1.7","","dqgtcj","sdff","","","-1","-1","right","accuracy","{""name"":""Chrome"",""chrome"":true,""version"":""80.0"",""blink"":true,""windows"":true,""osname"":""Windows"",""osversion"":""10"",""a"":true}","","left","0.5","rdk","8","1","training_1","1536 x 864","1396 x 686","true"
"180.82999996840954","69","true","e,t","e","5000","true","1","50","1","180","0.5","0","2","5","1.7","274.4","274.4","white","black","5","1","1","16.310909085653044","[12.760000070556998,16.790000023320317,16.59999997355044,16.78499998524785,16.43499988131225,16.88000001013279,16.770000103861094,16.534999944269657,16.5200000628829,16.749999951571226,16.594999935477972]","11","698","343","false","20","20","black","1","false","1","1","1396","686","rdk","30","241107","0.0-4.0-1.0-1.8","","dqgtcj","sdff","","","-1","-1","right","accuracy","{""name"":""Chrome"",""chrome"":true,""version"":""80.0"",""blink"":true,""windows"":true,""osname"":""Windows"",""osversion"":""10"",""a"":true}","","left","0.5","rdk","9","1","training_1","1536 x 864","1396 x 686","true"
"184.09500014968216","69","false","e,t","t","5000","true","1","50","1","0","0.5","0","2","5","1.7","274.4","274.4","white","black","5","1","1","16.75850001629442","[17.58000021800399,16.659999964758754,16.539999982342124,16.709999879822135,17.16000004671514,16.349999932572246,16.70500007458031,16.605000011622906,16.580000054091215,16.694999998435378]","10","698","343","false","20","20","black","1","false","1","1","1396","686","rdk","33","242055","0.0-4.0-1.0-1.9","","dqgtcj","sdff","","","-1","-1","right","accuracy","{""name"":""Chrome"",""chrome"":true,""version"":""80.0"",""blink"":true,""windows"":true,""osname"":""Windows"",""osversion"":""10"",""a"":true}","","right","0.5","rdk","10","1","training_1","1536 x 864","1396 x 686","true"
"183.45999997109175","69","true","e,t","e","5000","true","1","50","1","180","0.5","0","2","5","1.7","274.4","274.4","white","black","5","1","1","16.484999986873433","[14.36999998986721,16.779999947175384,16.620000125840306,16.57999982126057,17.265000147745013,16.204999992623925,16.56999997794628,16.850000014528632,16.66500000283122,16.64999988861382,16.779999947175384]","11","698","343","false","20","20","black","1","false","1","1","1396","686","rdk","36","243041","0.0-4.0-1.0-1.10","","dqgtcj","sdff","","","-1","-1","right","accuracy","{""name"":""Chrome"",""chrome"":true,""version"":""80.0"",""blink"":true,""windows"":true,""osname"":""Windows"",""osversion"":""10"",""a"":true}","","left","0.5","rdk","11","1","training_1","1536 x 864","1396 x 686","true"
"237.07500007003546","69","true","e,t","e","5000","true","1","50","1","180","0.5","0","2","5","1.7","274.4","274.4","white","black","5","1","1","16.11321429455919","[9.13999998010695,16.685000155121088,16.439999919384718,16.774999909102917,16.685000155121088,16.559999901801348,16.765000065788627,16.730000032112002,16.659999964758754,16.675000078976154,16.66500000283122,16.4899998344481,16.59000013023615,16.724999994039536]","14","698","343","false","20","20","black","1","false","1","1","1396","686","rdk","39","244100","0.0-4.0-1.0-1.11","","dqgtcj","sdff","","","-1","-1","right","accuracy","{""name"":""Chrome"",""chrome"":true,""version"":""80.0"",""blink"":true,""windows"":true,""osname"":""Windows"",""osversion"":""10"",""a"":true}","","left","0.5","rdk","12","1","training_1","1536 x 864","1396 x 686","true"
"198.68999999016523","69","true","e,t","e","5000","true","1","50","1","180","0.5","0","2","5","1.7","274.4","274.4","white","black","5","1","1","15.567916678264737","[3.475000150501728,16.694999998435378,16.60999981686473,16.56000013463199,16.820000018924475,16.534999944269657,16.659999964758754,16.835000133141875,16.59999997355044,16.534999944269657,16.83499990031123,16.65500015951693]","12","698","343","false","20","20","black","1","false","1","1","1396","686","rdk","44","246467","0.0-4.1-1.1-1.12","","dqgtcj","sdff","","","-1","-1","right","accuracy","{""name"":""Chrome"",""chrome"":true,""version"":""80.0"",""blink"":true,""windows"":true,""osname"":""Windows"",""osversion"":""10"",""a"":true}","","left","0.5","rdk","1","2","training_1","1536 x 864","1396 x 686","true"
"202.65999995172024","69","false","e,t","t","5000","true","1","50","1","0","0.5","0","2","5","1.7","274.4","274.4","white","black","5","1","1","16.419999999925494","[13.675000052899122,16.745000146329403,16.474999953061342,16.76000002771616,16.74499991349876,16.654999926686287,16.740000108256936,16.474999953061342,16.71000011265278,16.8399999383837,16.654999926686287,16.564999939873815]","12","698","343","false","20","20","black","1","false","1","1","1396","686","rdk","47","247327","0.0-4.1-1.1-1.13","","dqgtcj","sdff","","","-1","-1","right","accuracy","{""name"":""Chrome"",""chrome"":true,""version"":""80.0"",""blink"":true,""windows"":true,""osname"":""Windows"",""osversion"":""10"",""a"":true}","","right","0.5","rdk","2","2","training_1","1536 x 864","1396 x 686","true"
"186.67999980971217","69","false","e,t","t","5000","true","1","50","1","0","0.5","0","2","5","1.7","274.4","274.4","white","black","5","1","1","16.8359091039747","[18.635000102221966,16.56999997794628,16.66500000283122,16.694999998435378,16.629999969154596,16.659999964758754,16.83000009506941,16.700000036507845,17.21499999985099,15.954999951645732,16.64000004529953]","11","698","343","false","20","20","black","1","false","1","1","1396","686","rdk","50","248223","0.0-4.1-1.1-1.14","","dqgtcj","sdff","","","-1","-1","right","accuracy","{""name"":""Chrome"",""chrome"":true,""version"":""80.0"",""blink"":true,""windows"":true,""osname"":""Windows"",""osversion"":""10"",""a"":true}","","right","0.5","rdk","3","2","training_1","1536 x 864","1396 x 686","true"
"183.90499986708164","69","false","e,t","t","5000","true","1","50","1","0","0.5","0","2","5","1.7","274.4","274.4","white","black","5","1","1","16.602272739295255","[15.85500012151897,16.8399999383837,16.694999998435378,16.5049999486655,16.605000011622906,16.68999996036291,16.625000163912773,16.684999922290444,16.740000108256936,16.58499985933304,16.80000009946525]","11","698","343","false","20","20","black","1","false","1","1","1396","686","rdk","53","249140","0.0-4.1-1.1-1.15","","dqgtcj","sdff","","","-1","-1","right","accuracy","{""name"":""Chrome"",""chrome"":true,""version"":""80.0"",""blink"":true,""windows"":true,""osname"":""Windows"",""osversion"":""10"",""a"":true}","","right","0.5","rdk","4","2","training_1","1536 x 864","1396 x 686","true"
"186.04500009678304","69","true","e,t","e","5000","true","1","50","1","180","0.5","0","2","5","1.7","274.4","274.4","white","black","5","1","1","15.646818199787628","[5.585000151768327,16.589999897405505,16.629999969154596,16.71000011265278,16.714999917894602,16.419999999925494,16.71999995596707,16.675000078976154,16.650000121444464,16.71999995596707,16.700000036507845]","11","698","343","false","20","20","black","1","false","1","1","1396","686","rdk","56","250069","0.0-4.1-1.1-1.16","","dqgtcj","sdff","","","-1","-1","right","accuracy","{""name"":""Chrome"",""chrome"":true,""version"":""80.0"",""blink"":true,""windows"":true,""osname"":""Windows"",""osversion"":""10"",""a"":true}","","left","0.5","rdk","5","2","training_1","1536 x 864","1396 x 686","true"
"197.03499996103346","69","true","e,t","e","5000","true","1","50","1","180","0.5","0","2","5","1.7","274.4","274.4","white","black","5","1","1","18.317500012926757","[33.245000056922436,16.47000014781952,16.67499984614551,16.814999980852008,17.699999967589974,15.700000105425715,16.610000049695373,16.550000058487058,16.76999987103045,16.64000004529953]","10","698","343","false","20","20","black","1","false","1","1","1396","686","rdk","59","251019","0.0-4.1-1.1-1.17","","dqgtcj","sdff","","","-1","-1","right","accuracy","{""name"":""Chrome"",""chrome"":true,""version"":""80.0"",""blink"":true,""windows"":true,""osname"":""Windows"",""osversion"":""10"",""a"":true}","","left","0.5","rdk","6","2","training_1","1536 x 864","1396 x 686","true"
"217.8250001743436","69","true","e,t","e","5000","true","1","50","1","180","0.5","0","2","5","1.7","274.4","274.4","white","black","5","1","1","15.761923080740067","[4.7599999234080315,16.805000137537718,16.739999875426292,16.5200000628829,16.659999964758754,16.83000009506941,16.62499993108213,16.539999982342124,16.714999917894602,16.715000150725245,16.68999996036291,16.55499986372888,16.75000018440187]","13","698","343","false","20","20","black","1","false","1","1","1396","686","rdk","62","252101","0.0-4.1-1.1-1.18","","dqgtcj","sdff","","","-1","-1","right","accuracy","{""name"":""Chrome"",""chrome"":true,""version"":""80.0"",""blink"":true,""windows"":true,""osname"":""Windows"",""osversion"":""10"",""a"":true}","","left","0.5","rdk","7","2","training_1","1536 x 864","1396 x 686","true"
"234.62000000290573","69","true","e,t","e","5000","true","1","50","1","180","0.5","0","2","5","1.7","274.4","274.4","white","black","5","1","1","17.927692307589147","[33.12999987974763,16.675000078976154,16.539999982342124,16.820000018924475,16.444999957457185,16.61500008776784,16.754999989643693,16.814999980852008,16.594999935477972,16.670000040903687,16.54500002041459,16.670000040903687,16.78499998524785]","13","698","343","false","20","20","black","1","false","1","1","1396","686","rdk","65","253223","0.0-4.1-1.1-1.19","","dqgtcj","sdff","","","-1","-1","right","accuracy","{""name"":""Chrome"",""chrome"":true,""version"":""80.0"",""blink"":true,""windows"":true,""osname"":""Windows"",""osversion"":""10"",""a"":true}","","left","0.5","rdk","8","2","training_1","1536 x 864","1396 x 686","true"
"241.15999997593462","69","false","e,t","t","5000","true","1","50","1","0","0.5","0","2","5","1.7","274.4","274.4","white","black","5","1","1","16.087499995982007","[8.40499997138977,16.684999922290444,16.5200000628829,16.76000002771616,16.80999994277954,16.539999982342124,16.49500010535121,16.790000023320317,16.829999862238765,16.56000013463199,16.79499982856214,16.500000143423676,16.844999976456165,16.68999996036291]","14","698","343","false","20","20","black","1","false","1","1","1396","686","rdk","68","254388","0.0-4.1-1.1-1.20","","dqgtcj","sdff","","","-1","-1","right","accuracy","{""name"":""Chrome"",""chrome"":true,""version"":""80.0"",""blink"":true,""windows"":true,""osname"":""Windows"",""osversion"":""10"",""a"":true}","","right","0.5","rdk","9","2","training_1","1536 x 864","1396 x 686","true"
"255.4099999833852","69","false","e,t","t","5000","true","1","50","1","0","0.5","0","2","5","1.7","274.4","274.4","white","black","5","1","1","15.867499998421408","[3.619999857619405,16.820000018924475,16.66500000283122,16.77500014193356,16.62499993108213,16.465000109747052,16.934999963268638,16.610000049695373,16.704999841749668,16.59000013023615,16.74499991349876,16.619999893009663,16.555000096559525,16.795000061392784,16.534999944269657,16.820000018924475]","16","698","343","false","20","20","black","1","false","1","1","1396","686","rdk","71","255407","0.0-4.1-1.1-1.21","","dqgtcj","sdff","","","-1","-1","right","accuracy","{""name"":""Chrome"",""chrome"":true,""version"":""80.0"",""blink"":true,""windows"":true,""osname"":""Windows"",""osversion"":""10"",""a"":true}","","right","0.5","rdk","10","2","training_1","1536 x 864","1396 x 686","true"
"-1","-1","false","e,t","e","5000","true","1","50","1","180","0.5","0","2","5","1.7","274.4","274.4","white","black","5","1","1","16.649383333666872","[11.31500001065433,16.61500008776784,16.774999909102917,16.610000049695373,16.740000108256936,16.730000032112002,16.5049999486655,16.74499991349876,16.670000040903687,16.534999944269657,16.749999951571226,16.595000168308616,16.79499982856214,16.700000036507845,16.82500005699694,16.379999928176403,16.660000197589397,16.814999980852008,16.549999825656414,16.63000020198524,16.734999837353826,16.65500015951693,17.029999988153577,16.330000013113022,16.739999875426292,16.70500007458031,16.764999832957983,16.29500021226704,17.019999912008643,16.430000076070428,16.759999794885516,16.660000197589397,16.639999812468886,16.82500005699694,16.315000131726265,16.799999866634607,16.56000013463199,16.790000023320317,16.669999808073044,16.835000133141875,16.54500002041459,16.47999999113381,16.83499990031123,16.59999997355044,16.585000092163682,16.8399999383837,16.70500007458031,16.374999890103936,16.78499998524785,16.659999964758754,16.785000218078494,16.52999990619719,16.66500000283122,16.844999976456165,16.419999999925494,16.76000002771616,16.779999947175384,16.56000013463199,16.6999998036772,16.645000083371997,16.59999997355044,16.730000032112002,16.770000103861094,16.534999944269657,16.70500007458031,16.80999994277954,16.534999944269657,16.76000002771616,16.694999998435378,16.44999999552965,16.814999980852008,16.779999947175384,16.57500001601875,16.675000078976154,16.795000061392784,16.4899998344481,16.54500002041459,17.114999936893582,16.47999999113381,16.600000206381083,16.47999999113381,17.16999989002943,16.319999936968088,16.745000146329403,16.66500000283122,16.4899998344481,17.045000102370977,16.499999910593033,16.625000163912773,16.534999944269657,16.550000058487058,17.464999807998538,15.950000146403909,17.439999850466847,16.28000009804964,16.460000071674585,16.74499991349876,16.814999980852008,16.319999936968088,16.75000018440187,16.46499987691641,16.925000119954348,16.414999961853027,16.68999996036291,16.694999998435378,16.700000036507845,16.684999922290444,16.890000086277723,16.40000008046627,16.76999987103045,16.950000077486038,16.304999822750688,16.92000008188188,16.444999957457185,16.66500000283122,16.71000011265278,16.82500005699694,16.390000004321337,16.644999850541353,16.745000146329403,16.799999866634607,16.550000058487058,16.97500003501773,16.36000000871718,16.56999997794628,16.66500000283122,16.754999989643693,16.635000007227063,16.659999964758754,16.754999989643693,18.900000024586916,14.309999998658895,16.68999996036291,16.779999947175384,16.840000171214342,17.68999989144504,15.34499996341765,16.68000011704862,16.66500000283122,16.684999922290444,16.57500001601875,16.8399999383837,16.80999994277954,16.600000206381083,16.694999998435378,16.534999944269657,16.859999857842922,16.419999999925494,16.625000163912773,16.700000036507845,16.499999910593033,16.83499990031123,16.690000193193555,16.564999939873815,17.084999941289425,16.390000004321337,16.629999969154596,16.56000013463199,16.71999995596707,16.559999901801348,16.844999976456165,16.620000125840306,16.8399999383837,16.659999964758754,16.509999986737967,16.700000036507845,16.635000007227063,16.594999935477972,17.01500010676682,16.539999982342124,16.874999972060323,16.354999970644712,16.56999997794628,16.670000040903687,16.620000125840306,16.739999875426292,16.890000086277723,16.419999999925494,16.679999884217978,16.82500005699694,16.515000024810433,16.709999879822135,16.77500014193356,16.644999850541353,16.675000078976154,16.564999939873815,16.625000163912773,16.64999988861382,16.64000004529953,16.749999951571226,16.71000011265278,16.659999964758754,16.64999988861382,16.780000180006027,16.499999910593033,16.80999994277954,16.534999944269657,16.745000146329403,16.704999841749668,16.720000188797712,16.635000007227063,16.444999957457185,16.885000048205256,16.594999935477972,16.605000011622906,16.679999884217978,16.780000180006027,16.43499988131225,16.700000036507845,16.700000036507845,16.730000032112002,16.499999910593033,16.790000023320317,16.730000032112002,16.779999947175384,16.404999885708094,16.770000103861094,16.670000040903687,16.629999969154596,16.654999926686287,16.685000155121088,16.6999998036772,16.600000206381083,16.714999917894602,16.709999879822135,16.635000007227063,16.63000020198524,16.71999995596707,16.700000036507845,16.57999982126057,16.995000187307596,16.279999865218997,16.700000036507845,17.014999873936176,16.42500003799796,16.83000009506941,16.670000040903687,16.559999901801348,16.71999995596707,16.625000163912773,16.66500000283122,16.659999964758754,16.66500000283122,16.57500001601875,16.730000032112002,16.644999850541353,16.71999995596707,16.685000155121088,16.45999983884394,16.875000204890966,16.594999935477972,16.739999875426292,16.475000185891986,16.694999998435378,16.714999917894602,16.564999939873815,16.92000008188188,16.594999935477972,16.61500008776784,16.709999879822135,16.610000049695373,16.675000078976154,16.804999904707074,16.5200000628829,16.754999989643693,16.59999997355044,16.724999994039536,16.460000071674585,16.94500003941357,16.494999872520566,16.714999917894602,16.92000008188188,16.47999999113381,16.57500001601875,16.659999964758754,16.670000040903687,16.670000040903687,16.550000058487058,16.79499982856214,16.659999964758754,16.68000011704862,16.550000058487058,16.66500000283122,17.139999894425273,16.509999986737967,16.56000013463199,16.44999999552965,16.68999996036291,16.73500007018447,16.654999926686287,16.730000032112002,16.605000011622906,16.779999947175384,16.70500007458031,16.51499979197979,16.670000040903687,16.585000092163682,16.88000001013279,16.460000071674585,16.924999887123704]","300","698","343","false","20","20","black","1","false","1","1","1396","686","rdk","74","262411","0.0-4.1-1.1-1.22","","dqgtcj","sdff","","","-1","-1","right","accuracy","{""name"":""Chrome"",""chrome"":true,""version"":""80.0"",""blink"":true,""windows"":true,""osname"":""Windows"",""osversion"":""10"",""a"":true}","","left","0.5","rdk","11","2","training_1","1536 x 864","1396 x 686","false"
"-1","-1","false","e,t","t","5000","true","1","50","1","0","0.5","0","2","5","1.7","274.4","274.4","white","black","5","1","1","16.621416666700195","[3.019999945536256,16.994999954476953,16.345000127330422,16.829999862238765,16.659999964758754,16.555000096559525,16.714999917894602,17.890000017359853,15.780000016093254,16.345000127330422,16.694999998435378,16.614999854937196,16.835000133141875,16.58499985933304,16.515000024810433,16.88000001013279,16.5049999486655,16.700000036507845,16.700000036507845,16.730000032112002,16.64000004529953,16.564999939873815,16.790000023320317,16.635000007227063,16.54500002041459,16.644999850541353,16.900000162422657,16.469999914988875,16.57500001601875,16.80000009946525,16.55499986372888,16.654999926686287,16.765000065788627,16.80000009946525,16.619999893009663,16.629999969154596,16.730000032112002,16.675000078976154,16.679999884217978,16.585000092163682,16.515000024810433,16.749999951571226,16.635000007227063,16.670000040903687,16.92999992519617,16.59999997355044,16.56500017270446,16.659999964758754,16.74499991349876,16.5049999486655,16.82500005699694,16.56999997794628,16.675000078976154,16.8399999383837,16.52999990619719,16.580000054091215,16.83000009506941,16.66500000283122,16.52999990619719,16.724999994039536,16.5350001771003,16.829999862238765,16.499999910593033,16.890000086277723,16.474999953061342,16.694999998435378,16.700000036507845,16.76000002771616,16.645000083371997,16.539999982342124,16.619999893009663,16.724999994039536,16.68000011704862,16.844999976456165,16.580000054091215,16.68999996036291,16.594999935477972,16.97500003501773,16.365000046789646,16.594999935477972,16.90499996766448,16.605000011622906,16.629999969154596,16.59000013023615,16.694999998435378,16.64999988861382,16.59000013023615,16.694999998435378,16.619999893009663,16.61500008776784,16.694999998435378,16.76000002771616,16.694999998435378,16.60999981686473,16.670000040903687,16.659999964758754,16.68000011704862,16.564999939873815,16.765000065788627,16.654999926686287,16.645000083371997,16.679999884217978,16.650000121444464,16.64999988861382,16.900000162422657,16.534999944269657,16.619999893009663,16.70500007458031,16.86499989591539,17.13500008918345,16.779999947175384,17.235000152140856,15.704999910667539,16.24000002630055,16.659999964758754,16.765000065788627,16.515000024810433,16.91499981097877,16.5200000628829,16.790000023320317,16.465000109747052,16.714999917894602,16.61500008776784,16.6999998036772,16.80000009946525,16.539999982342124,16.59999997355044,16.78499998524785,17.290000105276704,16.34499989449978,16.330000013113022,16.629999969154596,16.80000009946525,16.90499996766448,16.36000000871718,17.044999869540334,16.210000030696392,17.51000015065074,16.319999936968088,16.550000058487058,16.40999992378056,16.670000040903687,16.73500007018447,16.36999985203147,16.745000146329403,16.88000001013279,16.6999998036772,16.685000155121088,16.58499985933304,16.76000002771616,16.33500005118549,16.934999963268638,16.675000078976154,16.704999841749668,16.555000096559525,16.5200000628829,16.619999893009663,16.8700001668185,16.58499985933304,16.629999969154596,16.610000049695373,16.684999922290444,17.035000026226044,16.245000064373016,16.90499996766448,16.64000004529953,16.509999986737967,16.774999909102917,16.625000163912773,16.684999922290444,16.71000011265278,16.57999982126057,16.77500014193356,16.549999825656414,16.83000009506941,16.515000024810433,16.675000078976154,16.724999994039536,16.539999982342124,16.804999904707074,16.59000013023615,16.72999979928136,16.585000092163682,16.955000115558505,16.469999914988875,16.55499986372888,16.84500020928681,16.614999854937196,16.61500008776784,16.66500000283122,16.71999995596707,16.64000004529953,16.580000054091215,16.779999947175384,16.66500000283122,16.59999997355044,16.765000065788627,16.799999866634607,16.419999999925494,16.835000133141875,16.589999897405505,16.539999982342124,16.805000137537718,16.68999996036291,16.559999901801348,16.68999996036291,16.745000146329403,16.659999964758754,16.509999986737967,16.86499989591539,16.675000078976154,16.675000078976154,16.519999830052257,16.765000065788627,16.62499993108213,16.59000013023615,16.980000073090196,16.484999796375632,16.57500001601875,16.73500007018447,16.684999922290444,16.650000121444464,16.614999854937196,16.71000011265278,16.90499996766448,16.40999992378056,16.64000004529953,16.605000011622906,16.65500015951693,16.804999904707074,16.71999995596707,16.620000125840306,16.55499986372888,16.73500007018447,16.709999879822135,16.505000181496143,16.829999862238765,16.56999997794628,16.650000121444464,16.79499982856214,16.690000193193555,16.4899998344481,16.645000083371997,16.814999980852008,16.534999944269657,16.765000065788627,16.70500007458031,16.644999850541353,16.56999997794628,16.77500014193356,16.66500000283122,16.564999939873815,16.68000011704862,16.799999866634607,16.68000011704862,16.469999914988875,16.765000065788627,16.724999994039536,16.62499993108213,16.700000036507845,16.679999884217978,16.460000071674585,16.740000108256936,16.629999969154596,16.704999841749668,16.73500007018447,16.61500008776784,16.67499984614551,16.81500021368265,16.499999910593033,16.679999884217978,16.610000049695373,17.0800001360476,16.390000004321337,16.54500002041459,16.95999992080033,16.5200000628829,16.55499986372888,16.80999994277954,16.5350001771003,16.694999998435378,16.78499998524785,16.644999850541353,16.509999986737967,16.68000011704862,16.694999998435378,16.97500003501773,16.474999953061342,16.555000096559525,16.704999841749668,16.525000100955367,16.68999996036291,16.80000009946525,16.55499986372888,16.700000036507845,17.005000030621886,17.32999994419515,15.739999944344163,16.47000014781952,16.754999989643693]","300","698","343","false","20","20","black","1","false","1","1","1396","686","rdk","77","269421","0.0-4.1-1.1-1.23","","dqgtcj","sdff","","","-1","-1","right","accuracy","{""name"":""Chrome"",""chrome"":true,""version"":""80.0"",""blink"":true,""windows"":true,""osname"":""Windows"",""osversion"":""10"",""a"":true}","","right","0.5","rdk","12","2","training_1","1536 x 864","1396 x 686","false"
"3291.260000085458","69","true","e,t","e","5000","true","1","50","1","180","0.5","0","2","5","1.7","274.4","274.4","white","black","5","1","1","16.654771574191408","[14.62500006891787,16.770000103861094,16.494999872520566,16.659999964758754,16.700000036507845,16.635000007227063,16.83000009506941,16.45500003360212,16.57999982126057,16.720000188797712,16.639999812468886,16.840000171214342,16.51499979197979,16.63000020198524,16.72999979928136,16.694999998435378,16.635000007227063,16.650000121444464,16.645000083371997,16.739999875426292,16.585000092163682,16.694999998435378,16.605000011622906,16.774999909102917,16.585000092163682,16.684999922290444,16.790000023320317,16.499999910593033,16.77500014193356,16.644999850541353,16.715000150725245,16.64999988861382,16.850000014528632,16.460000071674585,16.67499984614551,16.645000083371997,16.684999922290444,16.61500008776784,16.71999995596707,16.670000040903687,16.66500000283122,16.684999922290444,17.050000140443444,16.275000059977174,18.079999834299088,15.785000054165721,16.09500008635223,16.539999982342124,16.684999922290444,16.68999996036291,16.68999996036291,16.605000011622906,16.720000188797712,16.684999922290444,16.605000011622906,16.67499984614551,16.700000036507845,16.65500015951693,16.644999850541353,16.635000007227063,16.740000108256936,16.559999901801348,16.694999998435378,16.754999989643693,16.670000040903687,16.635000007227063,16.59999997355044,16.749999951571226,16.595000168308616,16.724999994039536,16.659999964758754,17.16999989002943,16.670000040903687,16.180000035092235,16.5049999486655,16.754999989643693,16.594999935477972,16.72500022687018,16.549999825656414,16.745000146329403,16.694999998435378,16.644999850541353,16.730000032112002,16.564999939873815,16.715000150725245,16.614999854937196,16.690000193193555,16.704999841749668,16.66500000283122,16.650000121444464,16.67499984614551,16.670000040903687,16.62499993108213,16.694999998435378,16.685000155121088,16.610000049695373,16.6999998036772,16.715000150725245,16.654999926686287,16.555000096559525,16.78499998524785,16.66500000283122,16.550000058487058,16.79499982856214,16.61500008776784,16.550000058487058,16.824999824166298,16.65500015951693,16.67499984614551,16.620000125840306,16.694999998435378,16.62499993108213,16.740000108256936,16.60999981686473,16.724999994039536,16.580000054091215,16.83000009506941,16.55499986372888,16.675000078976154,16.620000125840306,16.714999917894602,16.64999988861382,16.57500001601875,16.71000011265278,16.71999995596707,16.659999964758754,16.724999994039536,16.580000054091215,16.70500007458031,16.694999998435378,16.635000007227063,16.844999976456165,16.429999843239784,16.765000065788627,16.650000121444464,16.659999964758754,16.66500000283122,16.62499993108213,16.754999989643693,16.5049999486655,16.814999980852008,16.610000049695373,16.714999917894602,16.56000013463199,16.684999922290444,16.629999969154596,16.78499998524785,16.65500015951693,16.67499984614551,16.89500012435019,16.44999999552965,16.55499986372888,16.745000146329403,16.694999998435378,16.659999964758754,16.670000040903687,16.64999988861382,16.65500015951693,16.619999893009663,16.73500007018447,16.594999935477972,16.730000032112002,16.64000004529953,16.684999922290444,16.71000011265278,16.57999982126057,16.715000150725245,16.670000040903687,16.684999922290444,16.54500002041459,16.779999947175384,16.54500002041459,16.83000009506941,16.59999997355044,16.669999808073044,16.685000155121088,16.58499985933304,16.740000108256936,16.659999964758754,16.654999926686287,16.68000011704862,16.635000007227063,16.739999875426292,16.61500008776784,16.71999995596707,16.585000092163682,16.684999922290444,16.645000083371997,16.659999964758754,16.71999995596707,16.629999969154596,16.805000137537718,16.589999897405505,16.629999969154596,16.66500000283122,16.635000007227063,16.70500007458031]","197","698","343","false","20","20","black","1","false","1","1","1396","686","rdk","82","1168988","0.0-4.2-1.2-1.24","","dqgtcj","sdff","","","-1","-1","right","accuracy","{""name"":""Chrome"",""chrome"":true,""version"":""80.0"",""blink"":true,""windows"":true,""osname"":""Windows"",""osversion"":""10"",""a"":true}","","left","0.5","rdk","1","3","training_1","1536 x 864","1396 x 686","true"
"227.10000001825392","69","true","e,t","e","5000","true","1","50","1","180","0.5","0","2","5","1.7","274.4","274.4","white","black","5","1","1","16.514615388587117","[14.725000131875277,16.644999850541353,16.650000121444464,16.635000007227063,16.694999998435378,16.629999969154596,16.71000011265278,16.614999854937196,16.670000040903687,16.700000036507845,16.635000007227063,16.64999988861382,16.730000032112002]","13","698","343","false","20","20","black","1","false","1","1","1396","686","rdk","85","1170024","0.0-4.2-1.2-1.25","","dqgtcj","sdff","","","-1","-1","right","accuracy","{""name"":""Chrome"",""chrome"":true,""version"":""80.0"",""blink"":true,""windows"":true,""osname"":""Windows"",""osversion"":""10"",""a"":true}","","left","0.5","rdk","2","3","training_1","1536 x 864","1396 x 686","true"
"162.72999998182058","69","false","e,t","t","5000","true","1","50","1","0","0.5","0","2","5","1.7","274.4","274.4","white","black","5","1","1","16.668333335676127","[16.395000042393804,16.749999951571226,16.324999975040555,16.71999995596707,16.605000011622906,16.724999994039536,16.650000121444464,16.854999819770455,16.99000014923513]","9","698","343","false","20","20","black","1","false","1","1","1396","686","rdk","88","1170918","0.0-4.2-1.2-1.26","","dqgtcj","sdff","","","-1","-1","right","accuracy","{""name"":""Chrome"",""chrome"":true,""version"":""80.0"",""blink"":true,""windows"":true,""osname"":""Windows"",""osversion"":""10"",""a"":true}","","right","0.5","rdk","3","3","training_1","1536 x 864","1396 x 686","true"
"197.649999987334","69","false","e,t","t","5000","true","1","50","1","0","0.5","0","2","5","1.7","274.4","274.4","white","black","5","1","1","16.69409090060402","[17.20999996177852,16.80000009946525,16.430000076070428,16.589999897405505,16.675000078976154,16.694999998435378,16.644999850541353,16.68000011704862,16.724999994039536,16.610000049695373,16.574999783188105]","11","698","343","false","20","20","black","1","false","1","1","1396","686","rdk","91","1171875","0.0-4.2-1.2-1.27","","dqgtcj","sdff","","","-1","-1","right","accuracy","{""name"":""Chrome"",""chrome"":true,""version"":""80.0"",""blink"":true,""windows"":true,""osname"":""Windows"",""osversion"":""10"",""a"":true}","","right","0.5","rdk","4","3","training_1","1536 x 864","1396 x 686","true"
"235.95999996177852","69","false","e,t","t","5000","true","1","50","1","0","0.5","0","2","5","1.7","274.4","274.4","white","black","5","1","1","16.205714283777134","[10.15500002540648,17.179999966174364,16.250000102445483,16.754999989643693,16.859999857842922,16.915000043809414,16.430000076070428,17.315000062808394,15.840000007301569,16.54500002041459,16.559999901801348,16.915000043809414,16.57500001601875,16.58499985933304]","14","698","343","false","20","20","black","1","false","1","1","1396","686","rdk","94","1172937","0.0-4.2-1.2-1.28","","dqgtcj","sdff","","","-1","-1","right","accuracy","{""name"":""Chrome"",""chrome"":true,""version"":""80.0"",""blink"":true,""windows"":true,""osname"":""Windows"",""osversion"":""10"",""a"":true}","","right","0.5","rdk","5","3","training_1","1536 x 864","1396 x 686","true"
"190.20500010810792","69","true","e,t","e","5000","true","1","50","1","180","0.5","0","2","5","1.7","274.4","274.4","white","black","5","1","1","15.710000006947666","[4.94999997317791,16.980000073090196,16.564999939873815,16.68000011704862,16.88000001013279,16.44999999552965,16.90499996766448,16.39499980956316,16.670000040903687,16.605000011622906,16.715000150725245,16.724999994039536]","12","698","343","false","20","20","black","1","false","1","1","1396","686","rdk","97","1174013","0.0-4.2-1.2-1.29","","dqgtcj","sdff","","","-1","-1","right","accuracy","{""name"":""Chrome"",""chrome"":true,""version"":""80.0"",""blink"":true,""windows"":true,""osname"":""Windows"",""osversion"":""10"",""a"":true}","","left","0.5","rdk","6","3","training_1","1536 x 864","1396 x 686","true"
"229.27000001072884","69","false","e,t","t","5000","true","1","50","1","0","0.5","0","2","5","1.7","274.4","274.4","white","black","5","1","1","16.354230769838278","[12.755000032484531,16.71999995596707,16.490000067278743,16.77500014193356,16.644999850541353,16.960000153630972,16.45999983884394,16.985000111162663,16.24999986961484,16.585000092163682,16.654999926686287,16.65500015951693,16.669999808073044]","13","698","343","false","20","20","black","1","false","1","1","1396","686","rdk","100","1175062","0.0-4.2-1.2-1.30","","dqgtcj","sdff","","","-1","-1","right","accuracy","{""name"":""Chrome"",""chrome"":true,""version"":""80.0"",""blink"":true,""windows"":true,""osname"":""Windows"",""osversion"":""10"",""a"":true}","","right","0.5","rdk","7","3","training_1","1536 x 864","1396 x 686","true"
"197.67999998293817","69","true","e,t","e","5000","true","1","50","1","180","0.5","0","2","5","1.7","274.4","274.4","white","black","5","1","1","16.52727271853523","[15.33500012010336,16.59999997355044,16.534999944269657,16.659999964758754,17.80000003054738,15.60000004246831,16.59999997355044,16.670000040903687,16.749999951571226,16.550000058487058,16.6999998036772]","11","698","343","false","20","20","black","1","false","1","1","1396","686","rdk","103","1176094","0.0-4.2-1.2-1.31","","dqgtcj","sdff","","","-1","-1","right","accuracy","{""name"":""Chrome"",""chrome"":true,""version"":""80.0"",""blink"":true,""windows"":true,""osname"":""Windows"",""osversion"":""10"",""a"":true}","","left","0.5","rdk","8","3","training_1","1536 x 864","1396 x 686","true"
"190.20000007003546","69","true","e,t","e","5000","true","1","50","1","180","0.5","0","2","5","1.7","274.4","274.4","white","black","5","1","1","15.724583334910372","[5.4599998984485865,16.75000018440187,16.399999847635627,16.730000032112002,16.580000054091215,16.56999997794628,16.740000108256936,16.76999987103045,16.61500008776784,16.67499984614551,16.595000168308616,16.80999994277954]","12","698","343","false","20","20","black","1","false","1","1","1396","686","rdk","106","1177097","0.0-4.2-1.2-1.32","","dqgtcj","sdff","","","-1","-1","right","accuracy","{""name"":""Chrome"",""chrome"":true,""version"":""80.0"",""blink"":true,""windows"":true,""osname"":""Windows"",""osversion"":""10"",""a"":true}","","left","0.5","rdk","9","3","training_1","1536 x 864","1396 x 686","true"
"206.66999998502433","69","false","e,t","t","5000","true","1","50","1","0","0.5","0","2","5","1.7","274.4","274.4","white","black","5","1","1","16.75999998891105","[18.165000015869737,16.31499989889562,16.629999969154596,17.100000055506825,16.19999995455146,16.745000146329403,16.62499993108213,16.724999994039536,16.64000004529953,16.754999989643693,16.619999893009663,16.59999997355044]","12","698","343","false","20","20","black","1","false","1","1","1396","686","rdk","109","1178201","0.0-4.2-1.2-1.33","","dqgtcj","sdff","","","-1","-1","right","accuracy","{""name"":""Chrome"",""chrome"":true,""version"":""80.0"",""blink"":true,""windows"":true,""osname"":""Windows"",""osversion"":""10"",""a"":true}","","right","0.5","rdk","10","3","training_1","1536 x 864","1396 x 686","true"
"183.54000011458993","69","true","e,t","e","5000","true","1","50","1","180","0.5","0","2","5","1.7","274.4","274.4","white","black","5","1","1","16.331818187609315","[12.994999997317791,16.635000007227063,16.64000004529953,16.645000083371997,16.57999982126057,16.75000018440187,16.564999939873815,16.74499991349876,16.670000040903687,16.64000004529953,16.78499998524785]","11","698","343","false","20","20","black","1","false","1","1","1396","686","rdk","112","1179149","0.0-4.2-1.2-1.34","","dqgtcj","sdff","","","-1","-1","right","accuracy","{""name"":""Chrome"",""chrome"":true,""version"":""80.0"",""blink"":true,""windows"":true,""osname"":""Windows"",""osversion"":""10"",""a"":true}","","left","0.5","rdk","11","3","training_1","1536 x 864","1396 x 686","true"
"190.58499997481704","69","false","e,t","t","5000","true","1","50","1","0","0.5","0","2","5","1.7","274.4","274.4","white","black","5","1","1","15.752500000720223","[5.885000107809901,16.730000032112002,16.339999856427312,16.700000036507845,16.62499993108213,17.005000030621886,16.405000118538737,16.629999969154596,16.754999989643693,16.5200000628829,16.694999998435378,16.739999875426292]","12","698","343","false","20","20","black","1","false","1","1","1396","686","rdk","115","1180147","0.0-4.2-1.2-1.35","","dqgtcj","sdff","","","-1","-1","right","accuracy","{""name"":""Chrome"",""chrome"":true,""version"":""80.0"",""blink"":true,""windows"":true,""osname"":""Windows"",""osversion"":""10"",""a"":true}","","right","0.5","rdk","12","3","training_1","1536 x 864","1396 x 686","true"
"193.8149998895824","69","false","e,t","t","5000","true","1","50","1","0","0.2","0","2","5","1.7","274.4","274.4","white","black","5","1","1","16.443181804127313","[14.375000027939677,16.629999969154596,16.59999997355044,16.714999917894602,16.555000096559525,16.76999987103045,16.68000011704862,16.68999996036291,16.620000125840306,16.654999926686287,16.58499985933304]","11","698","343","false","20","20","black","1","false","1","1","1396","686","rdk","121","1183341","0.0-6.0-1.0-1.0","","dqgtcj","sdff","","","-1","-1","right","accuracy","{""name"":""Chrome"",""chrome"":true,""version"":""80.0"",""blink"":true,""windows"":true,""osname"":""Windows"",""osversion"":""10"",""a"":true}","","right","0.2","rdk","1","1","training_2","1536 x 864","1396 x 686","true"
"175.40500010363758","69","true","e,t","e","5000","true","1","50","1","180","0.2","0","2","5","1.7","274.4","274.4","white","black","5","1","1","15.69272728044201","[6.144999992102385,16.49500010535121,16.730000032112002,16.5200000628829,16.644999850541353,16.745000146329403,16.749999951571226,16.534999944269657,16.73500007018447,16.64000004529953,16.679999884217978]","11","698","343","false","20","20","black","1","false","1","1","1396","686","rdk","124","1184248","0.0-6.0-1.0-1.1","","dqgtcj","sdff","","","-1","-1","right","accuracy","{""name"":""Chrome"",""chrome"":true,""version"":""80.0"",""blink"":true,""windows"":true,""osname"":""Windows"",""osversion"":""10"",""a"":true}","","left","0.2","rdk","2","1","training_2","1536 x 864","1396 x 686","true"
"218.14000001177192","69","false","e,t","t","5000","true","1","50","1","0","0.2","0","2","5","1.7","274.4","274.4","white","black","5","1","1","16.785416674489777","[18.034999957308173,16.790000023320317,16.539999982342124,16.64000004529953,16.66500000283122,16.659999964758754,16.580000054091215,16.739999875426292,16.70500007458031,16.68000011704862,16.659999964758754,16.730000032112002]","12","698","343","false","20","20","black","1","false","1","1","1396","686","rdk","127","1185195","0.0-6.0-1.0-1.2","","dqgtcj","sdff","","","-1","-1","right","accuracy","{""name"":""Chrome"",""chrome"":true,""version"":""80.0"",""blink"":true,""windows"":true,""osname"":""Windows"",""osversion"":""10"",""a"":true}","","right","0.2","rdk","3","1","training_2","1536 x 864","1396 x 686","true"
"201.7449999693781","69","true","e,t","e","5000","true","1","50","1","180","0.2","0","2","5","1.7","274.4","274.4","white","black","5","1","1","16.572499996982515","[15.604999847710133,16.770000103861094,16.515000024810433,16.64000004529953,16.654999926686287,16.64000004529953,16.635000007227063,16.64000004529953,16.734999837353826,16.71999995596707,16.600000206381083,16.714999917894602]","12","698","343","false","20","20","black","1","false","1","1","1396","686","rdk","130","1186231","0.0-6.0-1.0-1.3","","dqgtcj","sdff","","","-1","-1","right","accuracy","{""name"":""Chrome"",""chrome"":true,""version"":""80.0"",""blink"":true,""windows"":true,""osname"":""Windows"",""osversion"":""10"",""a"":true}","","left","0.2","rdk","4","1","training_2","1536 x 864","1396 x 686","true"
"222.06999990157783","69","false","e,t","t","5000","true","1","50","1","0","0.2","0","2","5","1.7","274.4","274.4","white","black","5","1","1","16.145384619728876","[9.964999975636601,16.675000078976154,16.59000013023615,16.639999812468886,16.71000011265278,16.59999997355044,16.714999917894602,16.68999996036291,16.64000004529953,16.65500015951693,16.56999997794628,16.730000032112002,16.709999879822135]","13","698","343","false","20","20","black","1","false","1","1","1396","686","rdk","133","1187307","0.0-6.0-1.0-1.4","","dqgtcj","sdff","","","-1","-1","right","accuracy","{""name"":""Chrome"",""chrome"":true,""version"":""80.0"",""blink"":true,""windows"":true,""osname"":""Windows"",""osversion"":""10"",""a"":true}","","right","0.2","rdk","5","1","training_2","1536 x 864","1396 x 686","true"
"205.16000012867153","69","true","e,t","e","5000","true","1","50","1","180","0.2","0","2","5","1.7","274.4","274.4","white","black","5","1","1","15.740000002551824","[5.730000091716647,16.684999922290444,16.46499987691641,16.625000163912773,16.71999995596707,16.684999922290444,16.5049999486655,16.810000175610185,16.644999850541353,16.720000188797712,16.62499993108213,16.66500000283122]","12","698","343","false","20","20","black","1","false","1","1","1396","686","rdk","136","1188411","0.0-6.0-1.0-1.5","","dqgtcj","sdff","","","-1","-1","right","accuracy","{""name"":""Chrome"",""chrome"":true,""version"":""80.0"",""blink"":true,""windows"":true,""osname"":""Windows"",""osversion"":""10"",""a"":true}","","left","0.2","rdk","6","1","training_2","1536 x 864","1396 x 686","true"
"221.97500010952353","69","true","e,t","e","5000","true","1","50","1","180","0.2","0","2","5","1.7","274.4","274.4","white","black","5","1","1","16.24961537667192","[11.31500001065433,16.68999996036291,16.580000054091215,16.64000004529953,16.894999891519547,16.509999986737967,16.675000078976154,16.670000040903687,16.559999901801348,16.70500007458031,16.64000004529953,16.6999998036772,16.66500000283122]","13","698","343","false","20","20","black","1","false","1","1","1396","686","rdk","139","1189556","0.0-6.0-1.0-1.6","","dqgtcj","sdff","","","-1","-1","right","accuracy","{""name"":""Chrome"",""chrome"":true,""version"":""80.0"",""blink"":true,""windows"":true,""osname"":""Windows"",""osversion"":""10"",""a"":true}","","left","0.2","rdk","7","1","training_2","1536 x 864","1396 x 686","true"
"215.2249999344349","69","false","e,t","t","5000","true","1","50","1","0","0.2","0","2","5","1.7","274.4","274.4","white","black","5","1","1","15.651923067008074","[4.119999939575791,16.300000017508864,16.47999999113381,16.629999969154596,16.670000040903687,16.58499985933304,16.694999998435378,16.715000150725245,16.67499984614551,16.78499998524785,16.57500001601875,16.635000007227063,16.610000049695373]","13","698","343","false","20","20","black","1","false","1","1","1396","686","rdk","142","1190690","0.0-6.0-1.0-1.7","","dqgtcj","sdff","","","-1","-1","right","accuracy","{""name"":""Chrome"",""chrome"":true,""version"":""80.0"",""blink"":true,""windows"":true,""osname"":""Windows"",""osversion"":""10"",""a"":true}","","right","0.2","rdk","8","1","training_2","1536 x 864","1396 x 686","true"
"213.28000002540648","69","false","e,t","t","5000","true","1","50","1","0","0.2","0","2","5","1.7","274.4","274.4","white","black","5","1","1","16.151153840697727","[10.080000152811408,16.594999935477972,16.644999850541353,16.61500008776784,16.770000103861094,16.55499986372888,16.70500007458031,16.610000049695373,16.730000032112002,16.66500000283122,16.644999850541353,16.70500007458031,16.644999850541353]","13","698","343","false","20","20","black","1","false","1","1","1396","686","rdk","145","1192198","0.0-6.0-1.0-1.8","","dqgtcj","sdff","","","-1","-1","right","accuracy","{""name"":""Chrome"",""chrome"":true,""version"":""80.0"",""blink"":true,""windows"":true,""osname"":""Windows"",""osversion"":""10"",""a"":true}","","right","0.2","rdk","9","1","training_2","1536 x 864","1396 x 686","true"
"201.90999982878566","69","true","e,t","e","5000","true","1","50","1","180","0.2","0","2","5","1.7","274.4","274.4","white","black","5","1","1","18.220000011338428","[33.67000003345311,16.534999944269657,16.754999989643693,16.650000121444464,16.679999884217978,16.550000058487058,16.68999996036291,16.685000155121088,16.704999841749668,16.675000078976154,16.82500005699694]","11","698","343","false","20","20","black","1","false","1","1","1396","686","rdk","148","1193647","0.0-6.0-1.0-1.9","","dqgtcj","sdff","","","-1","-1","right","accuracy","{""name"":""Chrome"",""chrome"":true,""version"":""80.0"",""blink"":true,""windows"":true,""osname"":""Windows"",""osversion"":""10"",""a"":true}","","left","0.2","rdk","10","1","training_2","1536 x 864","1396 x 686","true"
"225.7400001399219","69","false","e,t","t","5000","true","1","50","1","0","0.2","0","2","5","1.7","274.4","274.4","white","black","5","1","1","16.261923073146207","[11.479999870061874,16.670000040903687,16.5200000628829,16.795000061392784,16.559999901801348,17.92000001296401,15.469999983906746,16.59999997355044,16.765000065788627,16.64000004529953,16.644999850541353,16.645000083371997,16.694999998435378]","13","698","343","false","20","20","black","1","false","1","1","1396","686","rdk","151","1194709","0.0-6.0-1.0-1.10","","dqgtcj","sdff","","","-1","-1","right","accuracy","{""name"":""Chrome"",""chrome"":true,""version"":""80.0"",""blink"":true,""windows"":true,""osname"":""Windows"",""osversion"":""10"",""a"":true}","","right","0.2","rdk","11","1","training_2","1536 x 864","1396 x 686","true"
"221.37999976985157","69","true","e,t","e","5000","true","1","50","1","180","0.2","0","2","5","1.7","274.4","274.4","white","black","5","1","1","16.64230770144898","[16.28000009804964,16.76000002771616,16.564999939873815,16.564999939873815,16.595000168308616,16.76000002771616,16.684999922290444,16.670000040903687,16.644999850541353,16.675000078976154,16.585000092163682,16.694999998435378,16.869999933987856]","13","698","343","false","20","20","black","1","false","1","1","1396","686","rdk","154","1195847","0.0-6.0-1.0-1.11","","dqgtcj","sdff","","","-1","-1","right","accuracy","{""name"":""Chrome"",""chrome"":true,""version"":""80.0"",""blink"":true,""windows"":true,""osname"":""Windows"",""osversion"":""10"",""a"":true}","","left","0.2","rdk","12","1","training_2","1536 x 864","1396 x 686","true"
"271.69000008143485","69","false","e,t","t","5000","true","1","50","1","0","0.2","0","2","5","1.7","274.4","274.4","white","black","5","1","1","16.643333326404292","[16.42500003799796,16.635000007227063,16.83499990031123,16.73500007018447,16.379999928176403,16.635000007227063,16.684999922290444,16.610000049695373,16.68000011704862,17.26499991491437,16.300000017508864,16.490000067278743,16.619999893009663,16.675000078976154,16.679999884217978]","15","698","343","false","20","20","black","1","false","1","1","1396","686","rdk","159","1198352","0.0-6.1-1.1-1.12","","dqgtcj","sdff","","","-1","-1","right","accuracy","{""name"":""Chrome"",""chrome"":true,""version"":""80.0"",""blink"":true,""windows"":true,""osname"":""Windows"",""osversion"":""10"",""a"":true}","","right","0.2","rdk","1","2","training_2","1536 x 864","1396 x 686","true"
"682.7700000721961","69","true","e,t","e","5000","true","1","50","1","180","0.2","0","2","5","1.7","274.4","274.4","white","black","5","1","1","16.45304877651719","[7.989999838173389,16.620000125840306,16.56999997794628,16.70500007458031,16.62499993108213,16.694999998435378,16.679999884217978,16.595000168308616,16.749999951571226,16.619999893009663,16.720000188797712,16.635000007227063,16.684999922290444,16.58499985933304,16.754999989643693,16.61500008776784,16.68000011704862,16.66500000283122,16.66500000283122,16.679999884217978,16.635000007227063,16.694999998435378,16.59999997355044,16.71999995596707,16.76000002771616,16.68999996036291,16.56500017270446,16.62499993108213,16.724999994039536,16.57500001601875,16.659999964758754,16.765000065788627,16.67499984614551,16.625000163912773,16.68999996036291,16.779999947175384,16.49500010535121,16.824999824166298,16.580000054091215,16.61500008776784,16.739999875426292]","41","698","343","false","20","20","black","1","false","1","1","1396","686","rdk","162","1200170","0.0-6.1-1.1-1.13","","dqgtcj","sdff","","","-1","-1","right","accuracy","{""name"":""Chrome"",""chrome"":true,""version"":""80.0"",""blink"":true,""windows"":true,""osname"":""Windows"",""osversion"":""10"",""a"":true}","","left","0.2","rdk","2","2","training_2","1536 x 864","1396 x 686","true"
"181.40999996103346","69","false","e,t","t","5000","true","1","50","1","0","0.2","0","2","5","1.7","274.4","274.4","white","black","5","1","1","15.669999982823025","[5.714999977499247,16.57999982126057,16.64000004529953,16.62499993108213,16.700000036507845,16.814999980852008,17.105000093579292,16.030000057071447,16.66500000283122,16.684999922290444,16.80999994277954]","11","698","343","false","20","20","black","1","false","1","1","1396","686","rdk","165","1201304","0.0-6.1-1.1-1.14","","dqgtcj","sdff","","","-1","-1","right","accuracy","{""name"":""Chrome"",""chrome"":true,""version"":""80.0"",""blink"":true,""windows"":true,""osname"":""Windows"",""osversion"":""10"",""a"":true}","","right","0.2","rdk","3","2","training_2","1536 x 864","1396 x 686","true"
"198.31499992869794","69","false","e,t","t","5000","true","1","50","1","0","0.2","0","2","5","1.7","274.4","274.4","white","black","5","1","1","16.284166660625488","[12.335000094026327,16.509999986737967,16.59999997355044,16.605000011622906,16.88999985344708,16.61500008776784,17.370000015944242,17.084999941289425,15.370000153779984,16.60999981686473,16.75000018440187,16.669999808073044]","12","698","343","false","20","20","black","1","false","1","1","1396","686","rdk","168","1202264","0.0-6.1-1.1-1.15","","dqgtcj","sdff","","","-1","-1","right","accuracy","{""name"":""Chrome"",""chrome"":true,""version"":""80.0"",""blink"":true,""windows"":true,""osname"":""Windows"",""osversion"":""10"",""a"":true}","","right","0.2","rdk","4","2","training_2","1536 x 864","1396 x 686","true"
"214.1799998935312","69","true","e,t","e","5000","true","1","50","1","180","0.2","0","2","5","1.7","274.4","274.4","white","black","5","1","1","16.34923078549596","[12.790000066161156,16.5049999486655,16.59999997355044,16.8700001668185,16.559999901801348,16.44999999552965,16.675000078976154,16.64999988861382,16.78499998524785,16.530000139027834,16.714999917894602,16.71000011265278,16.700000036507845]","13","698","343","false","20","20","black","1","false","1","1","1396","686","rdk","171","1203380","0.0-6.1-1.1-1.16","","dqgtcj","sdff","","","-1","-1","right","accuracy","{""name"":""Chrome"",""chrome"":true,""version"":""80.0"",""blink"":true,""windows"":true,""osname"":""Windows"",""osversion"":""10"",""a"":true}","","left","0.2","rdk","5","2","training_2","1536 x 864","1396 x 686","true"
"212.58000005036592","69","true","e,t","e","5000","true","1","50","1","180","0.2","0","2","5","1.7","274.4","274.4","white","black","5","1","1","18.214545445516706","[33.84999977424741,16.645000083371997,16.580000054091215,16.635000007227063,16.64000004529953,16.679999884217978,16.629999969154596,16.68999996036291,16.605000011622906,16.690000193193555,16.714999917894602]","11","698","343","false","20","20","black","1","false","1","1","1396","686","rdk","174","1204474","0.0-6.1-1.1-1.17","","dqgtcj","sdff","","","-1","-1","right","accuracy","{""name"":""Chrome"",""chrome"":true,""version"":""80.0"",""blink"":true,""windows"":true,""osname"":""Windows"",""osversion"":""10"",""a"":true}","","left","0.2","rdk","6","2","training_2","1536 x 864","1396 x 686","true"
"202.27999985218048","69","true","e,t","e","5000","true","1","50","1","180","0.2","0","2","5","1.7","274.4","274.4","white","black","5","1","1","16.62363634783436","[16.40999992378056,16.68999996036291,17.35999993979931,16.475000185891986,16.055000014603138,16.515000024810433,16.724999994039536,16.644999850541353,16.670000040903687,16.66500000283122,16.64999988861382]","11","698","343","false","20","20","black","1","false","1","1","1396","686","rdk","177","1205388","0.0-6.1-1.1-1.18","","dqgtcj","sdff","","","-1","-1","right","accuracy","{""name"":""Chrome"",""chrome"":true,""version"":""80.0"",""blink"":true,""windows"":true,""osname"":""Windows"",""osversion"":""10"",""a"":true}","","left","0.2","rdk","7","2","training_2","1536 x 864","1396 x 686","true"
"210.59500006958842","69","true","e,t","e","5000","true","1","50","1","180","0.2","0","2","5","1.7","274.4","274.4","white","black","5","1","1","16.76041667815298","[17.865000059828162,16.610000049695373,16.564999939873815,16.66500000283122,16.589999897405505,16.75000018440187,16.629999969154596,16.71999995596707,16.684999922290444,16.620000125840306,16.619999893009663,16.805000137537718]","12","698","343","false","20","20","black","1","false","1","1","1396","686","rdk","180","1206538","0.0-6.1-1.1-1.19","","dqgtcj","sdff","","","-1","-1","right","accuracy","{""name"":""Chrome"",""chrome"":true,""version"":""80.0"",""blink"":true,""windows"":true,""osname"":""Windows"",""osversion"":""10"",""a"":true}","","left","0.2","rdk","8","2","training_2","1536 x 864","1396 x 686","true"
"199.22999991104007","69","false","e,t","t","5000","true","1","50","1","0","0.2","0","2","5","1.7","274.4","274.4","white","black","5","1","1","16.158333339262754","[11.720000067725778,15.34499996341765,16.61500008776784,16.549999825656414,16.780000180006027,16.97500003501773,16.67499984614551,16.294999979436398,16.585000092163682,16.68999996036291,16.589999897405505,17.0800001360476]","12","698","343","false","20","20","black","1","false","1","1","1396","686","rdk","183","1207567","0.0-6.1-1.1-1.20","","dqgtcj","sdff","","","-1","-1","right","accuracy","{""name"":""Chrome"",""chrome"":true,""version"":""80.0"",""blink"":true,""windows"":true,""osname"":""Windows"",""osversion"":""10"",""a"":true}","","right","0.2","rdk","9","2","training_2","1536 x 864","1396 x 686","true"
"219.2500000819564","69","false","e,t","t","5000","true","1","50","1","0","0.2","0","2","5","1.7","274.4","274.4","white","black","5","1","1","16.73153846954497","[19.705000100657344,14.294999884441495,16.65500015951693,16.694999998435378,16.614999854937196,17.020000144839287,16.419999999925494,16.894999891519547,16.64000004529953,16.790000023320317,16.36000000871718,16.98499987833202,16.435000114142895]","13","698","343","false","20","20","black","1","false","1","1","1396","686","rdk","186","1208647","0.0-6.1-1.1-1.21","","dqgtcj","sdff","","","-1","-1","right","accuracy","{""name"":""Chrome"",""chrome"":true,""version"":""80.0"",""blink"":true,""windows"":true,""osname"":""Windows"",""osversion"":""10"",""a"":true}","","right","0.2","rdk","10","2","training_2","1536 x 864","1396 x 686","true"
"226.2850000988692","69","true","e,t","e","5000","true","1","50","1","180","0.2","0","2","5","1.7","274.4","274.4","white","black","5","1","1","16.002142868403876","[7.600000128149986,16.36000000871718,16.639999812468886,17.755000153556466,15.579999890178442,16.515000024810433,16.83000009506941,16.580000054091215,16.724999994039536,16.659999964758754,16.614999854937196,16.670000040903687,16.730000032112002,16.770000103861094]","14","698","343","false","20","20","black","1","false","1","1","1396","686","rdk","189","1209781","0.0-6.1-1.1-1.22","","dqgtcj","sdff","","","-1","-1","right","accuracy","{""name"":""Chrome"",""chrome"":true,""version"":""80.0"",""blink"":true,""windows"":true,""osname"":""Windows"",""osversion"":""10"",""a"":true}","","left","0.2","rdk","11","2","training_2","1536 x 864","1396 x 686","true"
"207.0500000845641","69","false","e,t","t","5000","true","1","50","1","0","0.2","0","2","5","1.7","274.4","274.4","white","black","5","1","1","15.942500011684993","[8.23500007390976,17.114999936893582,16.005000099539757,16.749999951571226,16.485000029206276,16.740000108256936,16.56999997794628,16.76999987103045,16.66500000283122,16.64000004529953,16.68000011704862,16.654999926686287]","12","698","343","false","20","20","black","1","false","1","1","1396","686","rdk","192","1210928","0.0-6.1-1.1-1.23","","dqgtcj","sdff","","","-1","-1","right","accuracy","{""name"":""Chrome"",""chrome"":true,""version"":""80.0"",""blink"":true,""windows"":true,""osname"":""Windows"",""osversion"":""10"",""a"":true}","","right","0.2","rdk","12","2","training_2","1536 x 864","1396 x 686","true"
"225.6499999202788","69","true","e,t","e","5000","true","1","50","1","180","0.2","0","2","5","1.7","274.4","274.4","white","black","5","1","1","15.965714285682354","[6.34000007994473,16.659999964758754,16.629999969154596,16.659999964758754,16.605000011622906,16.645000083371997,16.684999922290444,16.694999998435378,16.99999999254942,16.349999932572246,16.530000139027834,16.74499991349876,16.659999964758754,17.315000062808394]","14","698","343","false","20","20","black","1","false","1","1","1396","686","rdk","197","1220565","0.0-6.2-1.2-1.24","","dqgtcj","sdff","","","-1","-1","right","accuracy","{""name"":""Chrome"",""chrome"":true,""version"":""80.0"",""blink"":true,""windows"":true,""osname"":""Windows"",""osversion"":""10"",""a"":true}","","left","0.2","rdk","1","3","training_2","1536 x 864","1396 x 686","true"
"220.5650000832975","69","false","e,t","t","5000","true","1","50","1","0","0.2","0","2","5","1.7","274.4","274.4","white","black","5","1","1","16.397307698543255","[13.455000007525086,16.465000109747052,16.694999998435378,16.550000058487058,16.754999989643693,16.605000011622906,16.71999995596707,16.700000036507845,16.605000011622906,16.67499984614551,16.70500007458031,16.56999997794628,16.66500000283122]","13","698","343","false","20","20","black","1","false","1","1","1396","686","rdk","200","1221669","0.0-6.2-1.2-1.25","","dqgtcj","sdff","","","-1","-1","right","accuracy","{""name"":""Chrome"",""chrome"":true,""version"":""80.0"",""blink"":true,""windows"":true,""osname"":""Windows"",""osversion"":""10"",""a"":true}","","right","0.2","rdk","2","3","training_2","1536 x 864","1396 x 686","true"
"227.85499994643033","69","false","e,t","t","5000","true","1","50","1","0","0.2","0","2","5","1.7","274.4","274.4","white","black","5","1","1","16.157499996812216","[9.485000045970082,16.774999909102917,16.515000024810433,16.605000011622906,17.354999901726842,15.959999989718199,17.130000051110983,16.115000005811453,16.779999947175384,16.645000083371997,16.71999995596707,16.70500007458031,17.11999997496605,16.294999979436398]","14","698","343","false","20","20","black","1","false","1","1","1396","686","rdk","203","1222947","0.0-6.2-1.2-1.26","","dqgtcj","sdff","","","-1","-1","right","accuracy","{""name"":""Chrome"",""chrome"":true,""version"":""80.0"",""blink"":true,""windows"":true,""osname"":""Windows"",""osversion"":""10"",""a"":true}","","right","0.2","rdk","3","3","training_2","1536 x 864","1396 x 686","true"
"193.595000077039","69","false","e,t","t","5000","true","1","50","1","0","0.2","0","2","5","1.7","274.4","274.4","white","black","5","1","1","16.556818165223707","[15.699999872595072,16.564999939873815,16.57500001601875,16.694999998435378,16.59000013023615,16.724999994039536,16.57500001601875,16.824999824166298,16.57500001601875,16.66500000283122,16.635000007227063]","11","698","343","false","20","20","black","1","false","1","1","1396","686","rdk","206","1223956","0.0-6.2-1.2-1.27","","dqgtcj","sdff","","","-1","-1","right","accuracy","{""name"":""Chrome"",""chrome"":true,""version"":""80.0"",""blink"":true,""windows"":true,""osname"":""Windows"",""osversion"":""10"",""a"":true}","","right","0.2","rdk","4","3","training_2","1536 x 864","1396 x 686","true"
"196.02500018663704","69","false","e,t","t","5000","true","1","50","1","0","0.2","0","2","5","1.7","274.4","274.4","white","black","5","1","1","16.305909089913424","[12.895000167191029,16.62499993108213,16.494999872520566,16.670000040903687,16.659999964758754,16.645000083371997,16.659999964758754,16.805000137537718,16.95999992080033,16.275000059977174,16.67499984614551]","11","698","343","false","20","20","black","1","false","1","1","1396","686","rdk","209","1224960","0.0-6.2-1.2-1.28","","dqgtcj","sdff","","","-1","-1","right","accuracy","{""name"":""Chrome"",""chrome"":true,""version"":""80.0"",""blink"":true,""windows"":true,""osname"":""Windows"",""osversion"":""10"",""a"":true}","","right","0.2","rdk","5","3","training_2","1536 x 864","1396 x 686","true"
"204.16500000283122","69","true","e,t","e","5000","true","1","50","1","180","0.2","0","2","5","1.7","274.4","274.4","white","black","5","1","1","15.842083337095877","[7.0149998646229506,17.405000049620867,15.85500012151897,17.019999912008643,16.370000084862113,16.55499986372888,16.515000024810433,16.684999922290444,17.045000102370977,16.374999890103936,16.625000163912773,16.64000004529953]","12","698","343","false","20","20","black","1","false","1","1","1396","686","rdk","212","1226025","0.0-6.2-1.2-1.29","","dqgtcj","sdff","","","-1","-1","right","accuracy","{""name"":""Chrome"",""chrome"":true,""version"":""80.0"",""blink"":true,""windows"":true,""osname"":""Windows"",""osversion"":""10"",""a"":true}","","left","0.2","rdk","6","3","training_2","1536 x 864","1396 x 686","true"
"224.38499983400106","69","true","e,t","e","5000","true","1","50","1","180","0.2","0","2","5","1.7","274.4","274.4","white","black","5","1","1","16.498461544800264","[15.619999961927533,15.76000009663403,17.195000080391765,16.134999925270677,16.56999997794628,17.190000042319298,16.499999910593033,16.475000185891986,16.499999910593033,16.52999990619719,16.730000032112002,16.675000078976154,16.59999997355044]","13","698","343","false","20","20","black","1","false","1","1","1396","686","rdk","215","1227137","0.0-6.2-1.2-1.30","","dqgtcj","sdff","","","-1","-1","right","accuracy","{""name"":""Chrome"",""chrome"":true,""version"":""80.0"",""blink"":true,""windows"":true,""osname"":""Windows"",""osversion"":""10"",""a"":true}","","left","0.2","rdk","7","3","training_2","1536 x 864","1396 x 686","true"
"176.04999989271164","69","true","e,t","e","5000","true","1","50","1","180","0.2","0","2","5","1.7","274.4","274.4","white","black","5","1","1","15.552272723818367","[4.380000056698918,16.739999875426292,16.635000007227063,16.555000096559525,16.76000002771616,16.550000058487058,16.874999972060323,16.700000036507845,16.5049999486655,16.724999994039536,16.64999988861382]","11","698","343","false","20","20","black","1","false","1","1","1396","686","rdk","218","1228149","0.0-6.2-1.2-1.31","","dqgtcj","sdff","","","-1","-1","right","accuracy","{""name"":""Chrome"",""chrome"":true,""version"":""80.0"",""blink"":true,""windows"":true,""osname"":""Windows"",""osversion"":""10"",""a"":true}","","left","0.2","rdk","8","3","training_2","1536 x 864","1396 x 686","true"
"195.9400000050664","69","false","e,t","t","5000","true","1","50","1","0","0.2","0","2","5","1.7","274.4","274.4","white","black","5","1","1","16.184166655875742","[11.584999971091747,15.959999989718199,16.55499986372888,16.745000146329403,16.559999901801348,16.795000061392784,16.550000058487058,16.749999951571226,16.635000007227063,16.629999969154596,16.754999989643693,16.68999996036291]","12","698","343","false","20","20","black","1","false","1","1","1396","686","rdk","221","1229163","0.0-6.2-1.2-1.32","","dqgtcj","sdff","","","-1","-1","right","accuracy","{""name"":""Chrome"",""chrome"":true,""version"":""80.0"",""blink"":true,""windows"":true,""osname"":""Windows"",""osversion"":""10"",""a"":true}","","right","0.2","rdk","9","3","training_2","1536 x 864","1396 x 686","true"
"211.2900000065565","69","true","e,t","e","5000","true","1","50","1","180","0.2","0","2","5","1.7","274.4","274.4","white","black","5","1","1","16.098076907488014","[9.219999890774488,16.64000004529953,16.610000049695373,16.66500000283122,16.669999808073044,16.620000125840306,16.679999884217978,16.730000032112002,16.629999969154596,16.71000011265278,16.645000083371997,16.679999884217978,16.774999909102917]","13","698","343","false","20","20","black","1","false","1","1","1396","686","rdk","224","1230247","0.0-6.2-1.2-1.33","","dqgtcj","sdff","","","-1","-1","right","accuracy","{""name"":""Chrome"",""chrome"":true,""version"":""80.0"",""blink"":true,""windows"":true,""osname"":""Windows"",""osversion"":""10"",""a"":true}","","left","0.2","rdk","10","3","training_2","1536 x 864","1396 x 686","true"
"230.71000003255904","69","true","e,t","e","5000","true","1","50","1","180","0.2","0","2","5","1.7","274.4","274.4","white","black","5","1","1","16.716923081101132","[19.755000015720725,14.304999960586429,16.550000058487058,16.704999841749668,16.625000163912773,16.659999964758754,16.635000007227063,16.64999988861382,16.805000137537718,16.629999969154596,16.679999884217978,16.629999969154596,16.690000193193555]","13","698","343","false","20","20","black","1","false","1","1","1396","686","rdk","227","1231308","0.0-6.2-1.2-1.34","","dqgtcj","sdff","","","-1","-1","right","accuracy","{""name"":""Chrome"",""chrome"":true,""version"":""80.0"",""blink"":true,""windows"":true,""osname"":""Windows"",""osversion"":""10"",""a"":true}","","left","0.2","rdk","11","3","training_2","1536 x 864","1396 x 686","true"
"266.3549999706447","69","false","e,t","t","5000","true","1","50","1","0","0.2","0","2","5","1.7","274.4","274.4","white","black","5","1","1","16.040000002249144","[6.709999870508909,16.645000083371997,16.629999969154596,16.65500015951693,16.659999964758754,16.64999988861382,16.740000108256936,16.594999935477972,16.66500000283122,16.645000083371997,16.669999808073044,16.740000108256936,16.629999969154596,16.749999951571226,16.56000013463199,16.694999998435378]","16","698","343","false","20","20","black","1","false","1","1","1396","686","rdk","230","1232487","0.0-6.2-1.2-1.35","","dqgtcj","sdff","","","-1","-1","right","accuracy","{""name"":""Chrome"",""chrome"":true,""version"":""80.0"",""blink"":true,""windows"":true,""osname"":""Windows"",""osversion"":""10"",""a"":true}","","right","0.2","rdk","12","3","training_2","1536 x 864","1396 x 686","true"
